timestamp,ax,ay,az,gx,gy,gz,mx,my,mz,latitude,longitude,altitude,satellite_count,position_lock,temperature,pressure,barometer_altitude,rocket_state,l1_extension,l2_extension,
1440000,-0.042456,-1.01089,-0.016104,3.85,0.63,4.13,-0.17024,-0.15932,0.17276,41.4877,-89.5062,183.314,19,1,21.22,981.41,274.279,1,0,0,
1440010,-0.042456,-1.01089,-0.016104,3.85,0.63,4.13,-0.17024,-0.15932,0.17276,41.4877,-89.5062,183.314,19,1,21.22,981.41,274.279,1,0,0,
1440020,-0.042456,-1.01089,-0.016104,3.85,0.63,4.13,-0.17024,-0.15932,0.17276,41.4877,-89.5062,183.314,19,1,21.22,981.41,274.279,1,0,0,
1440030,-0.0366,-1.01089,-0.01464,4.2,0.07,3.92,-0.17234,-0.15652,0.16884,41.4877,-89.5062,183.314,19,1,21.21,981.34,274.884,1,0,0,
1440040,-0.0366,-1.01089,-0.01464,4.2,0.07,3.92,-0.17234,-0.15652,0.16884,41.4877,-89.5062,183.314,19,1,21.21,981.34,274.884,1,0,0,
1440050,-0.0366,-1.01089,-0.01464,4.2,0.07,3.92,-0.17234,-0.15652,0.16884,41.4877,-89.5062,183.314,19,1,21.21,981.34,274.884,1,0,0,
1440060,-0.037332,-1.0043,-0.016104,4.34,0.42,3.92,-0.17304,-0.15568,0.16954,41.4877,-89.5062,183.314,19,1,21.22,981.39,274.455,1,0,0,
1440070,-0.037332,-1.0043,-0.016104,4.34,0.42,3.92,-0.17304,-0.15568,0.16954,41.4877,-89.5062,183.314,19,1,21.22,981.39,274.455,1,0,0,
1440080,-0.050508,-1.01236,-0.008784,4.55,0.21,3.85,-0.16912,-0.15624,0.17052,41.4877,-89.5062,183.314,19,1,21.22,981.5,273.489,1,0,0,
1440090,-0.050508,-1.01236,-0.008784,4.55,0.21,3.85,-0.16912,-0.15624,0.17052,41.4877,-89.5062,183.314,19,1,21.22,981.5,273.489,1,0,0,
1440100,-0.050508,-1.01236,-0.008784,4.55,0.21,3.85,-0.16912,-0.15624,0.17052,41.4877,-89.5062,183.314,19,1,21.22,981.5,273.489,1,0,0,
1440110,-0.03294,-1.00796,-0.027084,3.64,0.35,3.71,-0.16478,-0.15834,0.1687,41.4877,-89.5062,183.295,19,1,21.22,981.37,274.63,1,0,0,
1440120,-0.03294,-1.00796,-0.027084,3.64,0.35,3.71,-0.16478,-0.15834,0.1687,41.4877,-89.5062,183.295,19,1,21.22,981.37,274.63,1,0,0,
1440130,-0.0366,-1.01675,-0.01098,4.27,-0.28,3.92,-0.17136,-0.16254,0.17164,41.4877,-89.5062,183.295,19,1,21.22,981.4,274.367,1,0,0,
1440140,-0.0366,-1.01675,-0.01098,4.27,-0.28,3.92,-0.17136,-0.16254,0.17164,41.4877,-89.5062,183.295,19,1,21.22,981.4,274.367,1,0,0,
1440150,-0.0366,-1.01675,-0.01098,4.27,-0.28,3.92,-0.17136,-0.16254,0.17164,41.4877,-89.5062,183.295,19,1,21.22,981.4,274.367,1,0,0,
1440160,-0.041724,-1.01162,-0.0183,4.2,-0.35,3.92,-0.16926,-0.15974,0.17696,41.4877,-89.5062,183.295,19,1,21.22,981.4,274.367,1,0,0,
1440170,-0.041724,-1.01162,-0.0183,4.2,-0.35,3.92,-0.16926,-0.15974,0.17696,41.4877,-89.5062,183.295,19,1,21.22,981.4,274.367,1,0,0,
1440180,-0.041724,-1.01162,-0.0183,4.2,-0.35,3.92,-0.16926,-0.15974,0.17696,41.4877,-89.5062,183.295,19,1,21.22,981.4,274.367,1,0,0,
1440190,-0.048312,-1.01602,-0.02196,4.55,-0.77,3.57,-0.1715,-0.15708,0.16828,41.4877,-89.5062,183.295,19,1,21.19,981.44,273.987,1,0,0,
1440200,-0.048312,-1.01602,-0.02196,4.55,-0.77,3.57,-0.1715,-0.15708,0.16828,41.4877,-89.5062,183.295,19,1,21.19,981.44,273.987,1,0,0,
1440210,-0.048312,-1.01602,-0.02196,4.55,-0.77,3.57,-0.1715,-0.15708,0.16828,41.4877,-89.5062,183.295,19,1,21.19,981.44,273.987,1,0,0,
1440220,-0.048312,-1.01602,-0.02196,4.55,-0.77,3.57,-0.1715,-0.15708,0.16828,41.4877,-89.5062,183.295,19,1,21.19,981.44,273.987,1,0,0,
1440230,-0.049044,-1.01382,-0.023424,4.13,-0.49,3.57,-0.17108,-0.15456,0.16968,41.4877,-89.5062,183.295,19,1,21.2,981.38,274.523,1,0,0,
1440240,-0.049044,-1.01382,-0.023424,4.13,-0.49,3.57,-0.17108,-0.15456,0.16968,41.4877,-89.5062,183.295,19,1,21.2,981.38,274.523,1,0,0,
1440250,-0.041724,-1.01455,-0.00732,4.41,0.14,3.85,-0.1736,-0.15456,0.17024,41.4877,-89.5062,183.295,19,1,21.2,981.43,274.084,1,0,0,
1440260,-0.041724,-1.01455,-0.00732,4.41,0.14,3.85,-0.1736,-0.15456,0.17024,41.4877,-89.5062,183.295,19,1,21.2,981.43,274.084,1,0,0,
1440270,-0.041724,-1.01455,-0.00732,4.41,0.14,3.85,-0.1736,-0.15456,0.17024,41.4877,-89.5062,183.295,19,1,21.2,981.43,274.084,1,0,0,
1440280,-0.043188,-1.01455,-0.019764,4.76,-0.07,4.13,-0.16898,-0.15218,0.17192,41.4877,-89.5062,183.295,19,1,21.2,981.44,273.997,1,0,0,
1440290,-0.043188,-1.01455,-0.019764,4.76,-0.07,4.13,-0.16898,-0.15218,0.17192,41.4877,-89.5062,183.295,19,1,21.2,981.44,273.997,1,0,0,
1440300,-0.043188,-1.01455,-0.019764,4.76,-0.07,4.13,-0.16898,-0.15218,0.17192,41.4877,-89.5062,183.295,19,1,21.2,981.44,273.997,1,0,0,
1440310,-0.044652,-1.0065,-0.016836,4.2,0.84,3.78,-0.1757,-0.15456,0.17136,41.4877,-89.5062,183.288,19,1,21.19,981.41,274.251,1,0,0,
1440320,-0.044652,-1.0065,-0.016836,4.2,0.84,3.78,-0.1757,-0.15456,0.17136,41.4877,-89.5062,183.288,19,1,21.19,981.41,274.251,1,0,0,
1440330,-0.05124,-1.0087,-0.021228,4.2,0.56,3.78,-0.17206,-0.15792,0.17542,41.4877,-89.5062,183.288,19,1,21.21,981.43,274.093,1,0,0,
1440340,-0.05124,-1.0087,-0.021228,4.2,0.56,3.78,-0.17206,-0.15792,0.17542,41.4877,-89.5062,183.288,19,1,21.21,981.43,274.093,1,0,0,
1440350,-0.05124,-1.0087,-0.021228,4.2,0.56,3.78,-0.17206,-0.15792,0.17542,41.4877,-89.5062,183.288,19,1,21.21,981.43,274.093,1,0,0,
1440360,-0.045384,-1.01162,-0.042456,4.62,0.63,3.99,-0.16786,-0.16226,0.17234,41.4877,-89.5062,183.288,19,1,21.2,981.37,274.611,1,0,0,
1440370,-0.045384,-1.01162,-0.042456,4.62,0.63,3.99,-0.16786,-0.16226,0.17234,41.4877,-89.5062,183.288,19,1,21.2,981.37,274.611,1,0,0,
1440380,-0.038796,-1.00723,-0.008784,4.41,0.91,3.71,-0.16758,-0.15904,0.17458,41.4877,-89.5062,183.288,19,1,21.18,981.41,274.241,1,0,0,
1440390,-0.038796,-1.00723,-0.008784,4.41,0.91,3.71,-0.16758,-0.15904,0.17458,41.4877,-89.5062,183.288,19,1,21.18,981.41,274.241,1,0,0,
1440400,-0.038796,-1.00723,-0.008784,4.41,0.91,3.71,-0.16758,-0.15904,0.17458,41.4877,-89.5062,183.288,19,1,21.18,981.41,274.241,1,0,0,
1440410,-0.038796,-1.00723,-0.008784,4.41,0.91,3.71,-0.16758,-0.15904,0.17458,41.4877,-89.5062,183.288,19,1,21.18,981.41,274.241,1,0,0,
1440420,-0.038796,-1.00723,-0.008784,4.41,0.91,3.71,-0.16758,-0.15904,0.17458,41.4877,-89.5062,183.288,19,1,21.18,981.41,274.241,1,0,0,
1440430,-0.04392,-1.01382,-0.0183,3.85,1.05,4.13,-0.16926,-0.1631,0.16814,41.4877,-89.5062,183.288,19,1,21.18,981.4,274.329,1,0,0,
1440440,-0.04392,-1.01382,-0.0183,3.85,1.05,4.13,-0.16926,-0.1631,0.16814,41.4877,-89.5062,183.288,19,1,21.18,981.4,274.329,1,0,0,
1440450,-0.04758,-1.01236,-0.0183,4.27,0.98,3.99,-0.16744,-0.16058,0.16534,41.4877,-89.5062,183.288,19,1,21.19,981.5,273.461,1,0,0,
1440460,-0.04758,-1.01236,-0.0183,4.27,0.98,3.99,-0.16744,-0.16058,0.16534,41.4877,-89.5062,183.288,19,1,21.19,981.5,273.461,1,0,0,
1440470,-0.04758,-1.01236,-0.0183,4.27,0.98,3.99,-0.16744,-0.16058,0.16534,41.4877,-89.5062,183.288,19,1,21.19,981.5,273.461,1,0,0,
1440480,-0.038064,-1.01748,-0.019032,4.62,0.63,4.06,-0.16856,-0.1575,0.17346,41.4877,-89.5062,183.288,19,1,21.2,981.42,274.172,1,0,0,
1440490,-0.038064,-1.01748,-0.019032,4.62,0.63,4.06,-0.16856,-0.1575,0.17346,41.4877,-89.5062,183.288,19,1,21.2,981.42,274.172,1,0,0,
1440500,-0.038064,-1.01748,-0.019032,4.62,0.63,4.06,-0.16856,-0.1575,0.17346,41.4877,-89.5062,183.288,19,1,21.2,981.42,274.172,1,0,0,
1440510,-0.034404,-1.01675,-0.022692,3.64,0.56,4.2,-0.16912,-0.15736,0.1694,41.4877,-89.5062,183.268,19,1,21.2,981.45,273.909,1,0,0,
1440520,-0.034404,-1.01675,-0.022692,3.64,0.56,4.2,-0.16912,-0.15736,0.1694,41.4877,-89.5062,183.268,19,1,21.2,981.45,273.909,1,0,0,
1440530,-0.040992,-1.01455,-0.015372,4.48,0.28,3.57,-0.17052,-0.16072,0.16996,41.4877,-89.5062,183.268,19,1,21.2,981.4,274.348,1,0,0,
1440540,-0.040992,-1.01455,-0.015372,4.48,0.28,3.57,-0.17052,-0.16072,0.16996,41.4877,-89.5062,183.268,19,1,21.2,981.4,274.348,1,0,0,
1440550,-0.040992,-1.01455,-0.015372,4.48,0.28,3.57,-0.17052,-0.16072,0.16996,41.4877,-89.5062,183.268,19,1,21.2,981.4,274.348,1,0,0,
1440560,-0.035136,-1.01089,-0.021228,4.55,-0.42,3.71,-0.1687,-0.1589,0.16884,41.4877,-89.5062,183.268,19,1,21.21,981.4,274.357,1,0,0,
1440570,-0.035136,-1.01089,-0.021228,4.55,-0.42,3.71,-0.1687,-0.1589,0.16884,41.4877,-89.5062,183.268,19,1,21.21,981.4,274.357,1,0,0,
1440580,-0.034404,-1.0087,-0.02196,4.34,-0.91,3.64,-0.1722,-0.1561,0.16282,41.4877,-89.5062,183.268,19,1,21.2,981.52,273.295,1,0,0,
1440590,-0.034404,-1.0087,-0.02196,4.34,-0.91,3.64,-0.1722,-0.1561,0.16282,41.4877,-89.5062,183.268,19,1,21.2,981.52,273.295,1,0,0,
1440600,-0.034404,-1.0087,-0.02196,4.34,-0.91,3.64,-0.1722,-0.1561,0.16282,41.4877,-89.5062,183.268,19,1,21.2,981.52,273.295,1,0,0,
1440610,-0.034404,-1.0087,-0.02196,4.34,-0.91,3.64,-0.1722,-0.1561,0.16282,41.4877,-89.5062,183.268,19,1,21.2,981.52,273.295,1,0,0,
1440620,-0.034404,-1.0087,-0.02196,4.34,-0.91,3.64,-0.1722,-0.1561,0.16282,41.4877,-89.5062,183.268,19,1,21.2,981.52,273.295,1,0,0,
1440630,-0.041724,-1.01309,-0.019032,4.2,-0.7,3.85,-0.1729,-0.15778,0.16478,41.4877,-89.5062,183.268,19,1,21.19,981.38,274.514,1,0,0,
1440640,-0.041724,-1.01309,-0.019032,4.2,-0.7,3.85,-0.1729,-0.15778,0.16478,41.4877,-89.5062,183.268,19,1,21.19,981.38,274.514,1,0,0,
1440650,-0.022692,-1.0226,-0.06954,3.85,-0.35,3.78,-0.1743,-0.15778,0.16898,41.4877,-89.5062,183.268,19,1,21.19,981.53,273.198,1,0,0,
1440660,-0.022692,-1.0226,-0.06954,3.85,-0.35,3.78,-0.1743,-0.15778,0.16898,41.4877,-89.5062,183.268,19,1,21.19,981.53,273.198,1,0,0,
1440670,-0.022692,-1.0226,-0.06954,3.85,-0.35,3.78,-0.1743,-0.15778,0.16898,41.4877,-89.5062,183.268,19,1,21.19,981.53,273.198,1,0,0,
1440680,-0.038064,-1.027,-0.019032,4.41,-0.42,3.92,-0.17066,-0.15736,0.1673,41.4877,-89.5062,183.268,19,1,21.2,981.4,274.348,1,0,0,
1440690,-0.038064,-1.027,-0.019032,4.41,-0.42,3.92,-0.17066,-0.15736,0.1673,41.4877,-89.5062,183.268,19,1,21.2,981.4,274.348,1,0,0,
1440700,-0.054168,-1.00943,-0.01464,4.13,-0.21,3.99,-0.17934,-0.15652,0.16604,41.4877,-89.5062,183.247,19,1,21.2,981.44,273.997,1,0,0,
1440710,-0.054168,-1.00943,-0.01464,4.13,-0.21,3.99,-0.17934,-0.15652,0.16604,41.4877,-89.5062,183.247,19,1,21.2,981.44,273.997,1,0,0,
1440720,-0.054168,-1.00943,-0.01464,4.13,-0.21,3.99,-0.17934,-0.15652,0.16604,41.4877,-89.5062,183.247,19,1,21.2,981.44,273.997,1,0,0,
1440730,-0.055632,-1.0087,-0.023424,4.69,-0.35,3.71,-0.1757,-0.14938,0.16268,41.4877,-89.5062,183.247,19,1,21.2,981.44,273.997,1,0,0,
1440740,-0.055632,-1.0087,-0.023424,4.69,-0.35,3.71,-0.1757,-0.14938,0.16268,41.4877,-89.5062,183.247,19,1,21.2,981.44,273.997,1,0,0,
1440750,-0.055632,-1.0087,-0.023424,4.69,-0.35,3.71,-0.1757,-0.14938,0.16268,41.4877,-89.5062,183.247,19,1,21.2,981.44,273.997,1,0,0,
1440760,-0.04392,-1.01382,-0.016836,4.48,0.14,3.99,-0.17234,-0.15876,0.16828,41.4877,-89.5062,183.247,19,1,21.2,981.51,273.383,1,0,0,
1440770,-0.04392,-1.01382,-0.016836,4.48,0.14,3.99,-0.17234,-0.15876,0.16828,41.4877,-89.5062,183.247,19,1,21.2,981.51,273.383,1,0,0,
1440780,-0.04758,-1.01309,-0.019764,4.48,0.7,3.92,-0.1736,-0.15694,0.16268,41.4877,-89.5062,183.247,19,1,21.18,981.45,273.891,1,0,0,
1440790,-0.04758,-1.01309,-0.019764,4.48,0.7,3.92,-0.1736,-0.15694,0.16268,41.4877,-89.5062,183.247,19,1,21.18,981.45,273.891,1,0,0,
1440800,-0.04758,-1.01309,-0.019764,4.48,0.7,3.92,-0.1736,-0.15694,0.16268,41.4877,-89.5062,183.247,19,1,21.18,981.45,273.891,1,0,0,
1440810,-0.04758,-1.01309,-0.019764,4.48,0.7,3.92,-0.1736,-0.15694,0.16268,41.4877,-89.5062,183.247,19,1,21.18,981.45,273.891,1,0,0,
1440820,-0.04758,-1.01309,-0.019764,4.48,0.7,3.92,-0.1736,-0.15694,0.16268,41.4877,-89.5062,183.247,19,1,21.19,981.51,273.373,1,0,0,
1440830,-0.049044,-1.01309,-0.012444,3.92,1.33,3.99,-0.1743,-0.16044,0.16492,41.4877,-89.5062,183.247,19,1,21.19,981.51,273.373,1,0,0,
1440840,-0.049044,-1.01309,-0.012444,3.92,1.33,3.99,-0.1743,-0.16044,0.16492,41.4877,-89.5062,183.247,19,1,21.19,981.51,273.373,1,0,0,
1440850,-0.045384,-1.01382,-0.013908,4.34,1.4,3.85,-0.17122,-0.15946,0.16828,41.4877,-89.5062,183.247,19,1,21.2,981.41,274.26,1,0,0,
1440860,-0.045384,-1.01382,-0.013908,4.34,1.4,3.85,-0.17122,-0.15946,0.16828,41.4877,-89.5062,183.247,19,1,21.2,981.41,274.26,1,0,0,
1440870,-0.045384,-1.01382,-0.013908,4.34,1.4,3.85,-0.17122,-0.15946,0.16828,41.4877,-89.5062,183.247,19,1,21.2,981.41,274.26,1,0,0,
1440880,-0.038796,-1.01236,-0.011712,4.62,1.26,3.64,-0.17066,-0.1631,0.16324,41.4877,-89.5062,183.247,19,1,21.17,981.43,274.056,1,0,0,
1440890,-0.038796,-1.01236,-0.011712,4.62,1.26,3.64,-0.17066,-0.1631,0.16324,41.4877,-89.5062,183.247,19,1,21.17,981.43,274.056,1,0,0,
1440900,-0.044652,-1.01748,-0.016836,4.69,1.19,3.78,-0.16996,-0.16338,0.17066,41.4877,-89.5062,183.242,19,1,21.19,981.43,274.075,1,0,0,
1440910,-0.044652,-1.01748,-0.016836,4.69,1.19,3.78,-0.16996,-0.16338,0.17066,41.4877,-89.5062,183.242,19,1,21.19,981.43,274.075,1,0,0,
1440920,-0.044652,-1.01748,-0.016836,4.69,1.19,3.78,-0.16996,-0.16338,0.17066,41.4877,-89.5062,183.242,19,1,21.19,981.43,274.075,1,0,0,
1440930,-0.041724,-1.00723,-0.0183,4.13,1.68,3.92,-0.16506,-0.16324,0.16898,41.4877,-89.5062,183.242,19,1,21.21,981.54,273.129,1,0,0,
1440940,-0.041724,-1.00723,-0.0183,4.13,1.68,3.92,-0.16506,-0.16324,0.16898,41.4877,-89.5062,183.242,19,1,21.21,981.54,273.129,1,0,0,
1440950,-0.041724,-1.00723,-0.0183,4.13,1.68,3.92,-0.16506,-0.16324,0.16898,41.4877,-89.5062,183.242,19,1,21.21,981.54,273.129,1,0,0,
1440960,-0.041724,-1.01602,-0.015372,4.55,1.26,3.64,-0.1652,-0.1589,0.16814,41.4877,-89.5062,183.242,19,1,21.21,981.38,274.532,1,0,0,
1440970,-0.041724,-1.01602,-0.015372,4.55,1.26,3.64,-0.1652,-0.1589,0.16814,41.4877,-89.5062,183.242,19,1,21.21,981.38,274.532,1,0,0,
1440980,-0.035136,-1.01309,-0.008784,4.34,0,3.64,-0.17024,-0.15512,0.1645,41.4877,-89.5062,183.242,19,1,21.16,981.39,274.399,1,0,0,
1440990,-0.035136,-1.01309,-0.008784,4.34,0,3.64,-0.17024,-0.15512,0.1645,41.4877,-89.5062,183.242,19,1,21.16,981.39,274.399,1,0,0,
1441000,-0.035136,-1.01309,-0.008784,4.34,0,3.64,-0.17024,-0.15512,0.1645,41.4877,-89.5062,183.242,19,1,21.16,981.39,274.399,1,0,0,
1441010,-0.035136,-1.01309,-0.008784,4.34,0,3.64,-0.17024,-0.15512,0.1645,41.4877,-89.5062,183.242,19,1,21.16,981.39,274.399,1,0,0,
1441020,-0.038064,-1.01894,-0.013908,3.99,0,4.06,-0.1652,-0.1582,0.17332,41.4877,-89.5062,183.242,19,1,21.19,981.44,273.987,1,0,0,
1441030,-0.038064,-1.01894,-0.013908,3.99,0,4.06,-0.1652,-0.1582,0.17332,41.4877,-89.5062,183.242,19,1,21.19,981.44,273.987,1,0,0,
1441040,-0.038064,-1.01894,-0.013908,3.99,0,4.06,-0.1652,-0.1582,0.17332,41.4877,-89.5062,183.242,19,1,21.19,981.44,273.987,1,0,0,
1441050,-0.043188,-1.01382,-0.0183,4.34,-1.26,3.99,-0.16576,-0.15442,0.1736,41.4877,-89.5062,183.242,19,1,21.2,981.49,273.558,1,0,0,
1441060,-0.043188,-1.01382,-0.0183,4.34,-1.26,3.99,-0.16576,-0.15442,0.1736,41.4877,-89.5062,183.242,19,1,21.2,981.49,273.558,1,0,0,
1441070,-0.043188,-1.01382,-0.0183,4.34,-1.26,3.99,-0.16576,-0.15442,0.1736,41.4877,-89.5062,183.242,19,1,21.2,981.49,273.558,1,0,0,
1441080,-0.045384,-1.01382,-0.027084,4.48,-0.77,3.85,-0.17164,-0.15876,0.1722,41.4877,-89.5062,183.242,19,1,21.2,981.47,273.733,1,0,0,
1441090,-0.045384,-1.01382,-0.027084,4.48,-0.77,3.85,-0.17164,-0.15876,0.1722,41.4877,-89.5062,183.242,19,1,21.2,981.47,273.733,1,0,0,
1441100,-0.045384,-1.01382,-0.02196,4.41,-0.91,4.06,-0.16856,-0.15638,0.17052,41.4877,-89.5062,183.225,19,1,21.18,981.36,274.68,1,0,0,
1441110,-0.045384,-1.01382,-0.02196,4.41,-0.91,4.06,-0.16856,-0.15638,0.17052,41.4877,-89.5062,183.225,19,1,21.18,981.36,274.68,1,0,0,
1441120,-0.045384,-1.01382,-0.02196,4.41,-0.91,4.06,-0.16856,-0.15638,0.17052,41.4877,-89.5062,183.225,19,1,21.18,981.36,274.68,1,0,0,
1441130,-0.053436,-1.00943,-0.012444,4.48,-0.7,4.06,-0.16982,-0.15792,0.17248,41.4877,-89.5062,183.225,19,1,21.2,981.41,274.26,1,0,0,
1441140,-0.053436,-1.00943,-0.012444,4.48,-0.7,4.06,-0.16982,-0.15792,0.17248,41.4877,-89.5062,183.225,19,1,21.2,981.41,274.26,1,0,0,
1441150,-0.04758,-1.01748,-0.01464,3.99,-0.63,4.13,-0.16954,-0.15512,0.17738,41.4877,-89.5062,183.225,19,1,21.2,981.4,274.348,1,0,0,
1441160,-0.04758,-1.01748,-0.01464,3.99,-0.63,4.13,-0.16954,-0.15512,0.17738,41.4877,-89.5062,183.225,19,1,21.2,981.4,274.348,1,0,0,
1441170,-0.04758,-1.01748,-0.01464,3.99,-0.63,4.13,-0.16954,-0.15512,0.17738,41.4877,-89.5062,183.225,19,1,21.2,981.4,274.348,1,0,0,
1441180,-0.051972,-1.01016,-0.028548,4.34,-0.49,3.5,-0.16912,-0.1547,0.17178,41.4877,-89.5062,183.225,19,1,21.18,981.38,274.504,1,0,0,
1441190,-0.051972,-1.01016,-0.028548,4.34,-0.49,3.5,-0.16912,-0.1547,0.17178,41.4877,-89.5062,183.225,19,1,21.18,981.38,274.504,1,0,0,
1441200,-0.051972,-1.01016,-0.028548,4.34,-0.49,3.5,-0.16912,-0.1547,0.17178,41.4877,-89.5062,183.225,19,1,21.18,981.38,274.504,1,0,0,
1441210,-0.051972,-1.01016,-0.028548,4.34,-0.49,3.5,-0.16912,-0.1547,0.17178,41.4877,-89.5062,183.225,19,1,21.18,981.38,274.504,1,0,0,
1441220,-0.04026,-1.01382,-0.0183,4.27,-0.49,3.92,-0.17234,-0.15932,0.17444,41.4877,-89.5062,183.225,19,1,21.19,981.43,274.075,1,0,0,
1441230,-0.04026,-1.01382,-0.0183,4.27,-0.49,3.92,-0.17234,-0.15932,0.17444,41.4877,-89.5062,183.225,19,1,21.19,981.43,274.075,1,0,0,
1441240,-0.04026,-1.01382,-0.0183,4.27,-0.49,3.92,-0.17234,-0.15932,0.17444,41.4877,-89.5062,183.225,19,1,21.19,981.43,274.075,1,0,0,
1441250,-0.04392,-1.01748,-0.022692,4.69,0.21,3.57,-0.1708,-0.15708,0.17808,41.4877,-89.5062,183.225,19,1,21.19,981.43,274.075,1,0,0,
1441260,-0.04392,-1.01748,-0.022692,4.69,0.21,3.57,-0.1708,-0.15708,0.17808,41.4877,-89.5062,183.225,19,1,21.19,981.43,274.075,1,0,0,
1441270,-0.04392,-1.01748,-0.022692,4.69,0.21,3.57,-0.1708,-0.15708,0.17808,41.4877,-89.5062,183.225,19,1,21.21,981.41,274.269,1,0,0,
1441280,-0.038796,-1.01309,-0.016836,4.2,0,4.13,-0.17136,-0.1561,0.1764,41.4877,-89.5062,183.225,19,1,21.21,981.41,274.269,1,0,0,
1441290,-0.038796,-1.01309,-0.016836,4.2,0,4.13,-0.17136,-0.1561,0.1764,41.4877,-89.5062,183.225,19,1,21.21,981.41,274.269,1,0,0,
1441300,-0.059292,-1.00064,0.012444,4.27,0.56,3.99,-0.16716,-0.15582,0.17402,41.4877,-89.5062,183.205,19,1,21.18,981.35,274.768,1,0,0,
1441310,-0.059292,-1.00064,0.012444,4.27,0.56,3.99,-0.16716,-0.15582,0.17402,41.4877,-89.5062,183.205,19,1,21.18,981.35,274.768,1,0,0,
1441320,-0.059292,-1.00064,0.012444,4.27,0.56,3.99,-0.16716,-0.15582,0.17402,41.4877,-89.5062,183.205,19,1,21.18,981.35,274.768,1,0,0,
1441330,-0.045384,-1.01309,-0.019764,4.62,0.84,3.85,-0.17318,-0.15778,0.17094,41.4877,-89.5062,183.205,19,1,21.2,981.46,273.821,1,0,0,
1441340,-0.045384,-1.01309,-0.019764,4.62,0.84,3.85,-0.17318,-0.15778,0.17094,41.4877,-89.5062,183.205,19,1,21.2,981.46,273.821,1,0,0,
1441350,-0.04758,-1.01528,-0.008052,4.41,1.05,3.85,-0.16884,-0.15736,0.182,41.4877,-89.5062,183.205,19,1,21.2,981.42,274.172,1,0,0,
1441360,-0.04758,-1.01528,-0.008052,4.41,1.05,3.85,-0.16884,-0.15736,0.182,41.4877,-89.5062,183.205,19,1,21.2,981.42,274.172,1,0,0,
1441370,-0.04758,-1.01528,-0.008052,4.41,1.05,3.85,-0.16884,-0.15736,0.182,41.4877,-89.5062,183.205,19,1,21.2,981.42,274.172,1,0,0,
1441380,-0.043188,-1.01162,-0.016836,4.2,1.26,3.92,-0.16982,-0.15862,0.1729,41.4877,-89.5062,183.205,19,1,21.17,981.39,274.408,1,0,0,
1441390,-0.043188,-1.01162,-0.016836,4.2,1.26,3.92,-0.16982,-0.15862,0.1729,41.4877,-89.5062,183.205,19,1,21.17,981.39,274.408,1,0,0,
1441400,-0.043188,-1.01162,-0.016836,4.2,1.26,3.92,-0.16982,-0.15862,0.1729,41.4877,-89.5062,183.205,19,1,21.17,981.39,274.408,1,0,0,
1441410,-0.043188,-1.01162,-0.016836,4.2,1.26,3.92,-0.16982,-0.15862,0.1729,41.4877,-89.5062,183.205,19,1,21.17,981.39,274.408,1,0,0,
1441420,-0.052704,-1.01382,-0.004392,3.92,0.77,3.71,-0.17178,-0.15834,0.17458,41.4877,-89.5062,183.205,19,1,21.19,981.5,273.461,1,0,0,
1441430,-0.052704,-1.01382,-0.004392,3.92,0.77,3.71,-0.17178,-0.15834,0.17458,41.4877,-89.5062,183.205,19,1,21.19,981.5,273.461,1,0,0,
1441440,-0.052704,-1.01382,-0.004392,3.92,0.77,3.71,-0.17178,-0.15834,0.17458,41.4877,-89.5062,183.205,19,1,21.19,981.5,273.461,1,0,0,
1441450,-0.052704,-1.01162,-0.010248,4.34,0.63,4.06,-0.17108,-0.15862,0.17668,41.4877,-89.5062,183.205,19,1,21.2,981.52,273.295,1,0,0,
1441460,-0.052704,-1.01162,-0.010248,4.34,0.63,4.06,-0.17108,-0.15862,0.17668,41.4877,-89.5062,183.205,19,1,21.2,981.52,273.295,1,0,0,
1441470,-0.035868,-1.01236,-0.013176,4.2,0.84,3.71,-0.17304,-0.1533,0.17948,41.4877,-89.5062,183.205,19,1,21.18,981.36,274.68,1,0,0,
1441480,-0.035868,-1.01236,-0.013176,4.2,0.84,3.71,-0.17304,-0.1533,0.17948,41.4877,-89.5062,183.205,19,1,21.18,981.36,274.68,1,0,0,
1441490,-0.035868,-1.01236,-0.013176,4.2,0.84,3.71,-0.17304,-0.1533,0.17948,41.4877,-89.5062,183.205,19,1,21.18,981.36,274.68,1,0,0,
1441500,-0.04758,-1.0087,-0.019764,4.55,0.42,4.13,-0.17276,-0.1568,0.17472,41.4877,-89.5062,183.201,19,1,21.19,981.46,273.812,1,0,0,
1441510,-0.04758,-1.0087,-0.019764,4.55,0.42,4.13,-0.17276,-0.1568,0.17472,41.4877,-89.5062,183.201,19,1,21.19,981.46,273.812,1,0,0,
1441520,-0.04758,-1.0087,-0.019764,4.55,0.42,4.13,-0.17276,-0.1568,0.17472,41.4877,-89.5062,183.201,19,1,21.19,981.46,273.812,1,0,0,
1441530,-0.040992,-1.01455,-0.005856,4.41,0.35,3.99,-0.17346,-0.16142,0.175,41.4877,-89.5062,183.201,19,1,21.2,981.41,274.26,1,0,0,
1441540,-0.040992,-1.01455,-0.005856,4.41,0.35,3.99,-0.17346,-0.16142,0.175,41.4877,-89.5062,183.201,19,1,21.2,981.41,274.26,1,0,0,
1441550,-0.037332,-1.01675,-0.013176,4.06,0.21,3.5,-0.1708,-0.15456,0.17388,41.4877,-89.5062,183.201,19,1,21.22,981.38,274.542,1,0,0,
1441560,-0.037332,-1.01675,-0.013176,4.06,0.21,3.5,-0.1708,-0.15456,0.17388,41.4877,-89.5062,183.201,19,1,21.22,981.38,274.542,1,0,0,
1441570,-0.037332,-1.01675,-0.013176,4.06,0.21,3.5,-0.1708,-0.15456,0.17388,41.4877,-89.5062,183.201,19,1,21.22,981.38,274.542,1,0,0,
1441580,-0.05124,-1.01162,-0.020496,4.41,0.07,3.99,-0.1757,-0.15764,0.17318,41.4877,-89.5062,183.201,19,1,21.17,981.37,274.583,1,0,0,
1441590,-0.05124,-1.01162,-0.020496,4.41,0.07,3.99,-0.1757,-0.15764,0.17318,41.4877,-89.5062,183.201,19,1,21.17,981.37,274.583,1,0,0,
1441600,-0.05124,-1.01162,-0.020496,4.41,0.07,3.99,-0.1757,-0.15764,0.17318,41.4877,-89.5062,183.201,19,1,21.17,981.37,274.583,1,0,0,
1441610,-0.05124,-1.01162,-0.020496,4.41,0.07,3.99,-0.1757,-0.15764,0.17318,41.4877,-89.5062,183.201,19,1,21.17,981.37,274.583,1,0,0,
1441620,-0.046116,-1.00943,-0.02562,4.2,-0.56,3.99,-0.17038,-0.15554,0.17724,41.4877,-89.5062,183.201,19,1,21.16,981.32,275.012,1,0,0,
1441630,-0.046116,-1.00943,-0.02562,4.2,-0.56,3.99,-0.17038,-0.15554,0.17724,41.4877,-89.5062,183.201,19,1,21.16,981.32,275.012,1,0,0,
1441640,-0.046116,-1.00943,-0.02562,4.2,-0.56,3.99,-0.17038,-0.15554,0.17724,41.4877,-89.5062,183.201,19,1,21.16,981.32,275.012,1,0,0,
1441650,-0.044652,-1.00943,-0.019764,4.62,0.14,3.85,-0.1729,-0.15582,0.17766,41.4877,-89.5062,183.201,19,1,21.18,981.4,274.329,1,0,0,
1441660,-0.044652,-1.00943,-0.019764,4.62,0.14,3.85,-0.1729,-0.15582,0.17766,41.4877,-89.5062,183.201,19,1,21.18,981.4,274.329,1,0,0,
1441670,-0.040992,-1.00577,-0.013908,4.06,-0.21,3.92,-0.17318,-0.15638,0.1778,41.4877,-89.5062,183.201,19,1,21.18,981.44,273.978,1,0,0,
1441680,-0.040992,-1.00577,-0.013908,4.06,-0.21,3.92,-0.17318,-0.15638,0.1778,41.4877,-89.5062,183.201,19,1,21.18,981.44,273.978,1,0,0,
1441690,-0.040992,-1.00577,-0.013908,4.06,-0.21,3.92,-0.17318,-0.15638,0.1778,41.4877,-89.5062,183.201,19,1,21.18,981.44,273.978,1,0,0,
1441700,-0.034404,-0.99918,-0.009516,4.41,-0.28,3.5,-0.17318,-0.15162,0.16912,41.4877,-89.5062,183.189,19,1,21.18,981.35,274.768,1,0,0,
1441710,-0.034404,-0.99918,-0.009516,4.41,-0.28,3.5,-0.17318,-0.15162,0.16912,41.4877,-89.5062,183.189,19,1,21.18,981.35,274.768,1,0,0,
1441720,-0.034404,-0.99918,-0.009516,4.41,-0.28,3.5,-0.17318,-0.15162,0.16912,41.4877,-89.5062,183.189,19,1,21.21,981.49,273.567,1,0,0,
1441730,-0.052704,-1.01821,-0.016836,4.34,0.35,3.92,-0.1736,-0.15414,0.17948,41.4877,-89.5062,183.189,19,1,21.21,981.49,273.567,1,0,0,
1441740,-0.052704,-1.01821,-0.016836,4.34,0.35,3.92,-0.1736,-0.15414,0.17948,41.4877,-89.5062,183.189,19,1,21.21,981.49,273.567,1,0,0,
1441750,-0.04026,-1.0065,-0.013908,4.55,0.63,3.85,-0.1736,-0.1547,0.17724,41.4877,-89.5062,183.189,19,1,21.19,981.4,274.339,1,0,0,
1441760,-0.04026,-1.0065,-0.013908,4.55,0.63,3.85,-0.1736,-0.1547,0.17724,41.4877,-89.5062,183.189,19,1,21.19,981.4,274.339,1,0,0,
1441770,-0.04026,-1.0065,-0.013908,4.55,0.63,3.85,-0.1736,-0.1547,0.17724,41.4877,-89.5062,183.189,19,1,21.19,981.4,274.339,1,0,0,
1441780,-0.0366,-1.01602,-0.026352,4.27,0.7,3.85,-0.16814,-0.15876,0.16856,41.4877,-89.5062,183.189,19,1,21.16,981.49,273.521,1,0,0,
1441790,-0.0366,-1.01602,-0.026352,4.27,0.7,3.85,-0.16814,-0.15876,0.16856,41.4877,-89.5062,183.189,19,1,21.16,981.49,273.521,1,0,0,
1441800,-0.0366,-1.01602,-0.026352,4.27,0.7,3.85,-0.16814,-0.15876,0.16856,41.4877,-89.5062,183.189,19,1,21.16,981.49,273.521,1,0,0,
1441810,-0.0366,-1.01602,-0.026352,4.27,0.7,3.85,-0.16814,-0.15876,0.16856,41.4877,-89.5062,183.189,19,1,21.16,981.49,273.521,1,0,0,
1441820,-0.043188,-1.01455,-0.009516,4.34,0.98,4.06,-0.1687,-0.15834,0.17556,41.4877,-89.5062,183.189,19,1,21.17,981.48,273.618,1,0,0,
1441830,-0.043188,-1.01455,-0.009516,4.34,0.98,4.06,-0.1687,-0.15834,0.17556,41.4877,-89.5062,183.189,19,1,21.17,981.48,273.618,1,0,0,
1441840,-0.043188,-1.01455,-0.009516,4.34,0.98,4.06,-0.1687,-0.15834,0.17556,41.4877,-89.5062,183.189,19,1,21.17,981.48,273.618,1,0,0,
1441850,-0.04392,-1.01455,-0.024156,4.34,0.84,4.06,-0.17318,-0.15778,0.17584,41.4877,-89.5062,183.189,19,1,21.17,981.36,274.671,1,0,0,
1441860,-0.04392,-1.01455,-0.024156,4.34,0.84,4.06,-0.17318,-0.15778,0.17584,41.4877,-89.5062,183.189,19,1,21.17,981.36,274.671,1,0,0,
1441870,-0.04392,-1.00943,-0.01464,4.34,0.49,3.85,-0.16646,-0.15876,0.1736,41.4877,-89.5062,183.189,19,1,21.17,981.31,275.11,1,0,0,
1441880,-0.04392,-1.00943,-0.01464,4.34,0.49,3.85,-0.16646,-0.15876,0.1736,41.4877,-89.5062,183.189,19,1,21.17,981.31,275.11,1,0,0,
1441890,-0.04392,-1.00943,-0.01464,4.34,0.49,3.85,-0.16646,-0.15876,0.1736,41.4877,-89.5062,183.189,19,1,21.17,981.31,275.11,1,0,0,
1441900,-0.03294,-1.01236,-0.017568,4.62,0.98,4.06,-0.17052,-0.15764,0.17416,41.4877,-89.5062,183.192,19,1,21.19,981.46,273.812,1,0,0,
1441910,-0.03294,-1.01236,-0.017568,4.62,0.98,4.06,-0.17052,-0.15764,0.17416,41.4877,-89.5062,183.192,19,1,21.19,981.46,273.812,1,0,0,
1441920,-0.041724,-1.0065,-0.015372,4.27,0.63,4.06,-0.16884,-0.15862,0.16688,41.4877,-89.5062,183.192,19,1,21.19,981.39,274.427,1,0,0,
1441930,-0.041724,-1.0065,-0.015372,4.27,0.63,4.06,-0.16884,-0.15862,0.16688,41.4877,-89.5062,183.192,19,1,21.19,981.39,274.427,1,0,0,
1441940,-0.041724,-1.0065,-0.015372,4.27,0.63,4.06,-0.16884,-0.15862,0.16688,41.4877,-89.5062,183.192,19,1,21.19,981.39,274.427,1,0,0,
1441950,-0.042456,-1.01528,-0.043188,4.62,-0.56,3.71,-0.16814,-0.15722,0.16772,41.4877,-89.5062,183.192,19,1,21.18,981.4,274.329,1,0,0,
1441960,-0.042456,-1.01528,-0.043188,4.62,-0.56,3.71,-0.16814,-0.15722,0.16772,41.4877,-89.5062,183.192,19,1,21.18,981.4,274.329,1,0,0,
1441970,-0.042456,-1.01528,-0.043188,4.62,-0.56,3.71,-0.16814,-0.15722,0.16772,41.4877,-89.5062,183.192,19,1,21.18,981.4,274.329,1,0,0,
1441980,-0.046848,-1.00577,-0.00366,3.99,0,3.99,-0.1673,-0.15596,0.17584,41.4877,-89.5062,183.191,19,1,21.2,981.45,273.909,1,0,0,
1441990,-0.046848,-1.00577,-0.00366,3.99,0,3.99,-0.1673,-0.15596,0.17584,41.4877,-89.5062,183.191,19,1,21.2,981.45,273.909,1,0,0,
1442000,-0.049776,-1.00723,-0.0183,4.06,-0.14,4.27,-0.16772,-0.15274,0.16912,41.4877,-89.5062,183.191,19,1,21.19,981.4,274.339,1,0,0,
1442010,-0.049776,-1.00723,-0.0183,4.06,-0.14,4.27,-0.16772,-0.15274,0.16912,41.4877,-89.5062,183.191,19,1,21.19,981.4,274.339,1,0,0,
1442020,-0.049776,-1.00723,-0.0183,4.06,-0.14,4.27,-0.16772,-0.15274,0.16912,41.4877,-89.5062,183.191,19,1,21.19,981.4,274.339,1,0,0,
1442030,-0.046116,-1.01309,-0.013908,4.34,-0.35,3.78,-0.16828,-0.15652,0.17024,41.4877,-89.5062,183.191,19,1,21.2,981.35,274.787,1,0,0,
1442040,-0.046116,-1.01309,-0.013908,4.34,-0.35,3.78,-0.16828,-0.15652,0.17024,41.4877,-89.5062,183.191,19,1,21.2,981.35,274.787,1,0,0,
1442050,-0.042456,-1.01016,-0.016104,4.2,-0.49,4.27,-0.17024,-0.15694,0.16996,41.4877,-89.5062,183.191,19,1,21.18,981.36,274.68,1,0,0,
1442060,-0.042456,-1.01016,-0.016104,4.2,-0.49,4.27,-0.17024,-0.15694,0.16996,41.4877,-89.5062,183.184,19,1,21.18,981.36,274.68,1,0,0,
1442070,-0.042456,-1.01016,-0.016104,4.2,-0.49,4.27,-0.17024,-0.15694,0.16996,41.4877,-89.5062,183.184,19,1,21.18,981.36,274.68,1,0,0,
1442080,-0.038064,-1.00943,-0.038064,3.85,-0.28,3.85,-0.17206,-0.15414,0.16842,41.4877,-89.5062,183.184,19,1,21.21,981.43,274.093,1,0,0,
1442090,-0.038064,-1.00943,-0.038064,3.85,-0.28,3.85,-0.17206,-0.15414,0.16842,41.4877,-89.5062,183.184,19,1,21.21,981.43,274.093,1,0,0,
1442100,-0.038064,-1.00943,-0.038064,3.85,-0.28,3.85,-0.17206,-0.15414,0.16842,41.4877,-89.5062,183.184,19,1,21.21,981.43,274.093,1,0,0,
1442110,-0.055632,-0.994788,0.008784,4.2,-0.07,4.06,-0.1715,-0.15862,0.17052,41.4877,-89.5062,183.184,19,1,21.21,981.37,274.62,1,0,0,
1442120,-0.055632,-0.994788,0.008784,4.2,-0.07,4.06,-0.1715,-0.15862,0.17052,41.4877,-89.5062,183.184,19,1,21.21,981.37,274.62,1,0,0,
1442130,-0.048312,-1.01089,-0.01098,4.55,0.21,3.78,-0.17136,-0.15148,0.1701,41.4877,-89.5062,183.184,19,1,21.2,981.35,274.787,1,0,0,
1442140,-0.048312,-1.01089,-0.01098,4.55,0.21,3.78,-0.17136,-0.15148,0.1701,41.4877,-89.5062,183.184,19,1,21.2,981.35,274.787,1,0,0,
1442150,-0.048312,-1.01089,-0.01098,4.55,0.21,3.78,-0.17136,-0.15148,0.1701,41.4877,-89.5062,183.184,19,1,21.2,981.35,274.787,1,0,0,
1442160,-0.045384,-1.01089,-0.016104,4.34,0,4.41,-0.17612,-0.1519,0.1715,41.4877,-89.5062,183.181,19,1,21.2,981.5,273.47,1,0,0,
1442170,-0.045384,-1.01089,-0.016104,4.34,0,4.41,-0.17612,-0.1519,0.1715,41.4877,-89.5062,183.181,19,1,21.2,981.5,273.47,1,0,0,
1442180,-0.055632,-1.02407,-0.020496,4.2,0.42,4.2,-0.17304,-0.15414,0.17094,41.4877,-89.5062,183.181,19,1,21.22,981.35,274.805,1,0,0,
1442190,-0.055632,-1.02407,-0.020496,4.2,0.42,4.2,-0.17304,-0.15414,0.17094,41.4877,-89.5062,183.181,19,1,21.22,981.35,274.805,1,0,0,
1442200,-0.055632,-1.02407,-0.020496,4.2,0.42,4.2,-0.17304,-0.15414,0.17094,41.4877,-89.5062,183.181,19,1,21.22,981.35,274.805,1,0,0,
1442210,-0.045384,-1.01821,-0.027084,4.34,0.07,3.99,-0.1715,-0.15386,0.17024,41.4877,-89.5062,183.181,19,1,21.22,981.46,273.84,1,0,0,
1442220,-0.045384,-1.01821,-0.027084,4.34,0.07,3.99,-0.1715,-0.15386,0.17024,41.4877,-89.5062,183.181,19,1,21.22,981.46,273.84,1,0,0,
1442230,-0.045384,-1.01821,-0.027084,4.34,0.07,3.99,-0.1715,-0.15386,0.17024,41.4877,-89.5062,183.181,19,1,21.22,981.46,273.84,1,0,0,
1442240,-0.050508,-1.0043,-0.001464,4.69,0.7,3.85,-0.1701,-0.15386,0.16828,41.4877,-89.5062,183.198,19,1,21.19,981.41,274.251,1,0,0,
1442250,-0.050508,-1.0043,-0.001464,4.69,0.7,3.85,-0.1701,-0.15386,0.16828,41.4877,-89.5062,183.198,19,1,21.19,981.41,274.251,1,0,0,
1442260,-0.046116,-1.01382,-0.019764,4.13,0.91,3.71,-0.16968,-0.15246,0.17626,41.4877,-89.5062,183.198,19,1,21.2,981.38,274.523,1,0,0,
1442270,-0.046116,-1.01382,-0.019764,4.13,0.91,3.71,-0.16968,-0.15246,0.17626,41.4877,-89.5062,183.198,19,1,21.2,981.38,274.523,1,0,0,
1442280,-0.046116,-1.01382,-0.019764,4.13,0.91,3.71,-0.16968,-0.15246,0.17626,41.4877,-89.5062,183.198,19,1,21.2,981.38,274.523,1,0,0,
1442290,-0.046848,-1.00723,-0.017568,3.99,0.77,3.71,-0.16996,-0.15428,0.16562,41.4877,-89.5062,183.198,19,1,21.21,981.5,273.479,1,0,0,
1442300,-0.046848,-1.00723,-0.017568,3.99,0.77,3.71,-0.16996,-0.15428,0.16562,41.4877,-89.5062,183.198,19,1,21.21,981.5,273.479,1,0,0,
1442310,-0.046848,-1.00723,-0.017568,3.99,0.77,3.71,-0.16996,-0.15428,0.16562,41.4877,-89.5062,183.198,19,1,21.21,981.5,273.479,1,0,0,
1442320,-0.051972,-1.01382,-0.009516,4.06,0.28,3.99,-0.17318,-0.15526,0.16954,41.4877,-89.5062,183.183,19,1,21.22,981.47,273.752,1,0,0,
1442330,-0.051972,-1.01382,-0.009516,4.06,0.28,3.99,-0.17318,-0.15526,0.16954,41.4877,-89.5062,183.183,19,1,21.22,981.47,273.752,1,0,0,
1442340,-0.035136,-1.01089,-0.027084,4.27,0.42,3.71,-0.1736,-0.1561,0.17416,41.4877,-89.5062,183.183,19,1,21.23,981.5,273.498,1,0,0,
1442350,-0.035136,-1.01089,-0.027084,4.27,0.42,3.71,-0.1736,-0.1561,0.17416,41.4877,-89.5062,183.183,19,1,21.23,981.5,273.498,1,0,0,
1442360,-0.035136,-1.01089,-0.027084,4.27,0.42,3.71,-0.1736,-0.1561,0.17416,41.4877,-89.5062,183.183,19,1,21.23,981.5,273.498,1,0,0,
1442370,-0.045384,-1.01089,-0.016104,4.41,-0.42,3.78,-0.17122,-0.15904,0.17052,41.4877,-89.5062,183.183,19,1,21.22,981.33,274.981,1,0,0,
1442380,-0.045384,-1.01089,-0.016104,4.41,-0.42,3.78,-0.17122,-0.15904,0.17052,41.4877,-89.5062,183.183,19,1,21.22,981.33,274.981,1,0,0,
1442390,-0.045384,-1.01748,-0.020496,4.34,-0.21,3.85,-0.16758,-0.15848,0.16674,41.4877,-89.5062,183.183,19,1,21.21,981.44,274.006,1,0,0,
1442400,-0.045384,-1.01748,-0.020496,4.34,-0.21,3.85,-0.16758,-0.15848,0.16674,41.4877,-89.5062,183.183,19,1,21.21,981.44,274.006,1,0,0,
1442410,-0.045384,-1.01748,-0.020496,4.34,-0.21,3.85,-0.16758,-0.15848,0.16674,41.4877,-89.5062,183.183,19,1,21.21,981.44,274.006,1,0,0,
1442420,-0.040992,-1.01528,-0.017568,4.34,0.07,3.64,-0.16968,-0.15428,0.16618,41.4877,-89.5062,183.193,19,1,21.22,981.48,273.665,1,0,0,
1442430,-0.040992,-1.01528,-0.017568,4.34,0.07,3.64,-0.16968,-0.15428,0.16618,41.4877,-89.5062,183.193,19,1,21.22,981.48,273.665,1,0,0,
1442440,-0.040992,-1.01528,-0.017568,4.34,0.07,3.64,-0.16968,-0.15428,0.16618,41.4877,-89.5062,183.193,19,1,21.22,981.48,273.665,1,0,0,
1442450,-0.038796,-1.0065,-0.012444,4.2,0.14,3.85,-0.1701,-0.1589,0.1729,41.4877,-89.5062,183.193,19,1,21.23,981.51,273.411,1,0,0,
1442460,-0.038796,-1.0065,-0.012444,4.2,0.14,3.85,-0.1701,-0.1589,0.1729,41.4877,-89.5062,183.193,19,1,21.23,981.51,273.411,1,0,0,
1442470,-0.042456,-1.00577,-0.013908,4.62,0.07,3.85,-0.16324,-0.16072,0.17178,41.4877,-89.5062,183.193,19,1,21.23,981.44,274.025,1,0,0,
1442480,-0.042456,-1.00577,-0.013908,4.62,0.07,3.85,-0.16324,-0.16072,0.17178,41.4877,-89.5062,183.193,19,1,21.23,981.44,274.025,1,0,0,
1442490,-0.042456,-1.00577,-0.013908,4.62,0.07,3.85,-0.16324,-0.16072,0.17178,41.4877,-89.5062,183.193,19,1,21.23,981.44,274.025,1,0,0,
1442500,-0.04026,-1.01382,-0.020496,4.41,-0.07,3.71,-0.16534,-0.16352,0.16772,41.4877,-89.5062,183.196,19,1,21.22,981.55,273.05,1,0,0,
1442510,-0.04026,-1.01382,-0.020496,4.41,-0.07,3.71,-0.16534,-0.16352,0.16772,41.4877,-89.5062,183.196,19,1,21.22,981.55,273.05,1,0,0,
1442520,-0.04758,-1.00796,-0.015372,4.06,0.49,3.92,-0.17262,-0.15288,0.16352,41.4877,-89.5062,183.196,19,1,21.2,981.49,273.558,1,0,0,
1442530,-0.04758,-1.00796,-0.015372,4.06,0.49,3.92,-0.17262,-0.15288,0.16352,41.4877,-89.5062,183.196,19,1,21.2,981.49,273.558,1,0,0,
1442540,-0.04758,-1.00796,-0.015372,4.06,0.49,3.92,-0.17262,-0.15288,0.16352,41.4877,-89.5062,183.196,19,1,21.2,981.49,273.558,1,0,0,
1442550,-0.045384,-1.00796,-0.02562,4.13,0.35,4.06,-0.16772,-0.16114,0.16618,41.4877,-89.5062,183.196,19,1,21.22,981.53,273.226,1,0,0,
1442560,-0.045384,-1.00796,-0.02562,4.13,0.35,4.06,-0.16772,-0.16114,0.16618,41.4877,-89.5062,183.196,19,1,21.22,981.53,273.226,1,0,0,
1442570,-0.045384,-1.00796,-0.02562,4.13,0.35,4.06,-0.16772,-0.16114,0.16618,41.4877,-89.5062,183.196,19,1,21.22,981.53,273.226,1,0,0,
1442580,-0.049776,-1.01236,-0.01464,4.83,0.21,3.64,-0.1722,-0.15666,0.16632,41.4877,-89.5062,183.196,19,1,21.19,981.52,273.286,1,0,0,
1442590,-0.049776,-1.01236,-0.01464,4.83,0.21,3.64,-0.1722,-0.15666,0.16632,41.4877,-89.5062,183.196,19,1,21.19,981.52,273.286,1,0,0,
1442600,-0.049776,-1.01236,-0.01464,4.83,0.21,3.64,-0.1722,-0.15666,0.16632,41.4877,-89.5062,183.196,19,1,21.19,981.52,273.286,1,0,0,
1442610,-0.049776,-1.01236,-0.01464,4.83,0.21,3.64,-0.1722,-0.15666,0.16632,41.4877,-89.5062,183.196,19,1,21.19,981.52,273.286,1,0,0,
1442620,-0.04392,-1.01162,-0.016836,4.69,0.28,4.41,-0.1687,-0.15246,0.16422,41.4877,-89.5062,183.196,19,1,21.19,981.44,273.987,1,0,0,
1442630,-0.04392,-1.01162,-0.016836,4.69,0.28,4.41,-0.1687,-0.15246,0.16422,41.4877,-89.5062,183.196,19,1,21.19,981.44,273.987,1,0,0,
1442640,-0.04392,-1.01162,-0.016836,4.69,0.28,4.41,-0.1687,-0.15246,0.16422,41.4877,-89.5062,183.196,19,1,21.19,981.44,273.987,1,0,0,
1442650,-0.04392,-1.00577,-0.020496,4.34,0.07,3.85,-0.16576,-0.15204,0.1631,41.4877,-89.5062,183.196,19,1,21.18,981.45,273.891,1,0,0,
1442660,-0.04392,-1.00577,-0.020496,4.34,0.07,3.85,-0.16576,-0.15204,0.1631,41.4877,-89.5062,183.196,19,1,21.18,981.45,273.891,1,0,0,
1442670,-0.045384,-1.01675,-0.02196,4.27,0.56,4.34,-0.16576,-0.1575,0.1673,41.4877,-89.5062,183.196,19,1,21.19,981.37,274.602,1,0,0,
1442680,-0.045384,-1.01675,-0.02196,4.27,0.56,4.34,-0.16576,-0.1575,0.1673,41.4877,-89.5062,183.196,19,1,21.19,981.37,274.602,1,0,0,
1442690,-0.045384,-1.01675,-0.02196,4.27,0.56,4.34,-0.16576,-0.1575,0.1673,41.4877,-89.5062,183.196,19,1,21.19,981.37,274.602,1,0,0,
1442700,-0.04392,-1.01162,-0.01464,3.99,0.91,3.99,-0.17122,-0.15596,0.16884,41.4877,-89.5062,183.18,19,1,21.19,981.44,273.987,1,0,0,
1442710,-0.04392,-1.01162,-0.01464,3.99,0.91,3.99,-0.17122,-0.15596,0.16884,41.4877,-89.5062,183.18,19,1,21.19,981.44,273.987,1,0,0,
1442720,-0.035868,-1.01821,-0.013176,4.41,0.28,4.06,-0.16632,-0.15568,0.17038,41.4877,-89.5062,183.18,19,1,21.2,981.35,274.787,1,0,0,
1442730,-0.035868,-1.01821,-0.013176,4.41,0.28,4.06,-0.16632,-0.15568,0.17038,41.4877,-89.5062,183.18,19,1,21.2,981.35,274.787,1,0,0,
1442740,-0.035868,-1.01821,-0.013176,4.41,0.28,4.06,-0.16632,-0.15568,0.17038,41.4877,-89.5062,183.18,19,1,21.2,981.35,274.787,1,0,0,
1442750,-0.055632,-0.996252,-0.010248,4.13,0.56,3.92,-0.16464,-0.15694,0.16618,41.4877,-89.5062,183.18,19,1,21.17,981.4,274.32,1,0,0,
1442760,-0.055632,-0.996252,-0.010248,4.13,0.56,3.92,-0.16464,-0.15694,0.16618,41.4877,-89.5062,183.18,19,1,21.17,981.4,274.32,1,0,0,
1442770,-0.055632,-0.996252,-0.010248,4.13,0.56,3.92,-0.16464,-0.15694,0.16618,41.4877,-89.5062,183.18,19,1,21.17,981.4,274.32,1,0,0,
1442780,-0.050508,-1.01602,-0.021228,4.34,0.84,3.92,-0.17024,-0.15652,0.16618,41.4877,-89.5062,183.18,19,1,21.18,981.6,272.575,1,0,0,
1442790,-0.050508,-1.01602,-0.021228,4.34,0.84,3.92,-0.17024,-0.15652,0.16618,41.4877,-89.5062,183.18,19,1,21.18,981.6,272.575,1,0,0,
1442800,-0.050508,-1.01602,-0.021228,4.34,0.84,3.92,-0.17024,-0.15652,0.16618,41.4877,-89.5062,183.18,19,1,21.18,981.6,272.575,1,0,0,
1442810,-0.050508,-1.01602,-0.021228,4.34,0.84,3.92,-0.17024,-0.15652,0.16618,41.4877,-89.5062,183.18,19,1,21.18,981.6,272.575,1,0,0,
1442820,-0.039528,-1.01089,-0.021228,4.34,0.42,3.85,-0.168,-0.15736,0.16814,41.4877,-89.5062,183.18,19,1,21.19,981.56,272.935,1,0,0,
1442830,-0.039528,-1.01089,-0.021228,4.34,0.42,3.85,-0.168,-0.15736,0.16814,41.4877,-89.5062,183.18,19,1,21.19,981.56,272.935,1,0,0,
1442840,-0.039528,-1.01089,-0.021228,4.34,0.42,3.85,-0.168,-0.15736,0.16814,41.4877,-89.5062,183.18,19,1,21.19,981.56,272.935,1,0,0,
1442850,-0.038064,-1.01675,-0.020496,4.76,0.56,3.71,-0.17192,-0.15876,0.168,41.4877,-89.5062,183.18,19,1,21.19,981.45,273.9,1,0,0,
1442860,-0.038064,-1.01675,-0.020496,4.76,0.56,3.71,-0.17192,-0.15876,0.168,41.4877,-89.5062,183.18,19,1,21.19,981.45,273.9,1,0,0,
1442870,-0.035868,-1.01528,-0.021228,4.13,0.42,3.99,-0.16772,-0.15736,0.17444,41.4877,-89.5062,183.18,19,1,21.18,981.35,274.768,1,0,0,
1442880,-0.035868,-1.01528,-0.021228,4.13,0.42,3.99,-0.16772,-0.15736,0.17444,41.4877,-89.5062,183.18,19,1,21.18,981.35,274.768,1,0,0,
1442890,-0.035868,-1.01528,-0.021228,4.13,0.42,3.99,-0.16772,-0.15736,0.17444,41.4877,-89.5062,183.18,19,1,21.18,981.35,274.768,1,0,0,
1442900,-0.037332,-1.02334,-0.051972,4.55,0.49,3.85,-0.16884,-0.1568,0.16968,41.4877,-89.5062,183.157,19,1,21.21,981.45,273.919,1,0,0,
1442910,-0.037332,-1.02334,-0.051972,4.55,0.49,3.85,-0.16884,-0.1568,0.16968,41.4877,-89.5062,183.157,19,1,21.21,981.45,273.919,1,0,0,
1442920,-0.038064,-1.01455,-0.022692,3.99,0.84,3.99,-0.1708,-0.15778,0.17374,41.4877,-89.5062,183.157,19,1,21.21,981.44,274.006,1,0,0,
1442930,-0.038064,-1.01455,-0.022692,3.99,0.84,3.99,-0.1708,-0.15778,0.17374,41.4877,-89.5062,183.157,19,1,21.21,981.44,274.006,1,0,0,
1442940,-0.038064,-1.01455,-0.022692,3.99,0.84,3.99,-0.1708,-0.15778,0.17374,41.4877,-89.5062,183.157,19,1,21.21,981.44,274.006,1,0,0,
1442950,-0.0366,-1.01236,-0.016104,4.41,0.21,4.2,-0.17108,-0.1582,0.16898,41.4877,-89.5062,183.157,19,1,21.19,981.4,274.339,1,0,0,
1442960,-0.0366,-1.01236,-0.016104,4.41,0.21,4.2,-0.17108,-0.1582,0.16898,41.4877,-89.5062,183.157,19,1,21.19,981.4,274.339,1,0,0,
1442970,-0.0366,-1.01236,-0.016104,4.41,0.21,4.2,-0.17108,-0.1582,0.16898,41.4877,-89.5062,183.157,19,1,21.19,981.4,274.339,1,0,0,
1442980,-0.041724,-1.01602,-0.022692,4.76,0.28,4.13,-0.1715,-0.15666,0.17234,41.4877,-89.5062,183.162,19,1,21.2,981.44,273.997,1,0,0,
1442990,-0.041724,-1.01602,-0.022692,4.76,0.28,4.13,-0.1715,-0.15666,0.17234,41.4877,-89.5062,183.162,19,1,21.2,981.44,273.997,1,0,0,
1443000,-0.035868,-1.01528,-0.016104,3.85,-0.28,4.06,-0.16968,-0.15806,0.17262,41.4877,-89.5062,183.162,19,1,21.2,981.41,274.26,1,0,0,
1443010,-0.035868,-1.01528,-0.016104,3.85,-0.28,4.06,-0.16968,-0.15806,0.17262,41.4877,-89.5062,183.162,19,1,21.2,981.41,274.26,1,0,0,
1443020,-0.035868,-1.01528,-0.016104,3.85,-0.28,4.06,-0.16968,-0.15806,0.17262,41.4877,-89.5062,183.162,19,1,21.2,981.41,274.26,1,0,0,
1443030,-0.035136,-1.01968,-0.055632,4.06,-0.63,3.85,-0.17192,-0.1582,0.17318,41.4877,-89.5062,183.162,19,1,21.21,981.49,273.567,1,0,0,
1443040,-0.035136,-1.01968,-0.055632,4.06,-0.63,3.85,-0.17192,-0.1582,0.17318,41.4877,-89.5062,183.162,19,1,21.21,981.49,273.567,1,0,0,
1443050,-0.035868,-1.02626,-0.049044,4.48,-0.35,3.78,-0.16982,-0.1575,0.17822,41.4877,-89.5062,183.162,19,1,21.21,981.35,274.796,1,0,0,
1443060,-0.035868,-1.02626,-0.049044,4.48,-0.35,3.78,-0.16982,-0.1575,0.17822,41.4877,-89.5062,183.153,19,1,21.21,981.35,274.796,1,0,0,
1443070,-0.035868,-1.02626,-0.049044,4.48,-0.35,3.78,-0.16982,-0.1575,0.17822,41.4877,-89.5062,183.153,19,1,21.21,981.35,274.796,1,0,0,
1443080,-0.043188,-1.00796,-0.016104,4.2,-0.14,3.92,-0.17122,-0.15876,0.1743,41.4877,-89.5062,183.153,19,1,21.21,981.37,274.62,1,0,0,
1443090,-0.043188,-1.00796,-0.016104,4.2,-0.14,3.92,-0.17122,-0.15876,0.1743,41.4877,-89.5062,183.153,19,1,21.21,981.37,274.62,1,0,0,
1443100,-0.043188,-1.00796,-0.016104,4.2,-0.14,3.92,-0.17122,-0.15876,0.1743,41.4877,-89.5062,183.153,19,1,21.21,981.37,274.62,1,0,0,
1443110,-0.049044,-1.01309,-0.013176,5.04,0.28,4.13,-0.17332,-0.15778,0.16898,41.4877,-89.5062,183.153,19,1,21.21,981.38,274.532,1,0,0,
1443120,-0.049044,-1.01309,-0.013176,5.04,0.28,4.13,-0.17332,-0.15778,0.16898,41.4877,-89.5062,183.153,19,1,21.21,981.38,274.532,1,0,0,
1443130,-0.042456,-1.01309,-0.021228,4.69,0.28,4.06,-0.17024,-0.15694,0.17514,41.4877,-89.5062,183.153,19,1,21.2,981.41,274.26,1,0,0,
1443140,-0.042456,-1.01309,-0.021228,4.69,0.28,4.06,-0.17024,-0.15694,0.17514,41.4877,-89.5062,183.153,19,1,21.2,981.41,274.26,1,0,0,
1443150,-0.042456,-1.01309,-0.021228,4.69,0.28,4.06,-0.17024,-0.15694,0.17514,41.4877,-89.5062,183.153,19,1,21.2,981.41,274.26,1,0,0,
1443160,-0.050508,-1.01382,-0.01464,4.69,0.49,3.99,-0.1694,-0.15512,0.17402,41.4877,-89.5062,183.146,19,1,21.21,981.33,274.972,1,0,0,
1443170,-0.050508,-1.01382,-0.01464,4.69,0.49,3.99,-0.1694,-0.15512,0.17402,41.4877,-89.5062,183.146,19,1,21.21,981.33,274.972,1,0,0,
1443180,-0.049776,-1.01455,-0.008784,4.34,0.07,4.06,-0.16618,-0.15498,0.168,41.4877,-89.5062,183.146,19,1,21.21,981.43,274.093,1,0,0,
1443190,-0.049776,-1.01455,-0.008784,4.34,0.07,4.06,-0.16618,-0.15498,0.168,41.4877,-89.5062,183.146,19,1,21.21,981.43,274.093,1,0,0,
1443200,-0.049776,-1.01455,-0.008784,4.34,0.07,4.06,-0.16618,-0.15498,0.168,41.4877,-89.5062,183.146,19,1,21.21,981.43,274.093,1,0,0,
1443210,-0.040992,-1.01089,-0.015372,3.99,-0.07,4.13,-0.17136,-0.15442,0.16618,41.4877,-89.5062,183.146,19,1,21.2,981.37,274.611,1,0,0,
1443220,-0.040992,-1.01089,-0.015372,3.99,-0.07,4.13,-0.17136,-0.15442,0.16618,41.4877,-89.5062,183.146,19,1,21.2,981.37,274.611,1,0,0,
1443230,-0.040992,-1.01089,-0.015372,3.99,-0.07,4.13,-0.17136,-0.15442,0.16618,41.4877,-89.5062,183.146,19,1,21.2,981.37,274.611,1,0,0,
1443240,-0.038796,-1.00943,-0.02928,4.2,0.49,3.71,-0.16604,-0.15764,0.16842,41.4877,-89.5062,183.15,19,1,21.2,981.49,273.558,1,0,0,
1443250,-0.038796,-1.00943,-0.02928,4.2,0.49,3.71,-0.16604,-0.15764,0.16842,41.4877,-89.5062,183.15,19,1,21.2,981.49,273.558,1,0,0,
1443260,-0.043188,-1.01236,-0.013176,4.48,0,3.85,-0.1701,-0.15442,0.16856,41.4877,-89.5062,183.15,19,1,21.19,981.39,274.427,1,0,0,
1443270,-0.043188,-1.01236,-0.013176,4.48,0,3.85,-0.1701,-0.15442,0.16856,41.4877,-89.5062,183.15,19,1,21.19,981.39,274.427,1,0,0,
1443280,-0.043188,-1.01236,-0.013176,4.48,0,3.85,-0.1701,-0.15442,0.16856,41.4877,-89.5062,183.15,19,1,21.19,981.39,274.427,1,0,0,
1443290,-0.057096,-1.01455,-0.033672,4.55,0.56,3.78,-0.17276,-0.15624,0.16842,41.4877,-89.5062,183.15,19,1,21.22,981.59,272.699,1,0,0,
1443300,-0.057096,-1.01455,-0.033672,4.55,0.56,3.78,-0.17276,-0.15624,0.16842,41.4877,-89.5062,183.15,19,1,21.22,981.59,272.699,1,0,0,
1443310,-0.042456,-1.0087,-0.010248,4.06,0.56,3.71,-0.16772,-0.15834,0.17164,41.4877,-89.5062,183.15,19,1,21.2,981.4,274.348,1,0,0,
1443320,-0.042456,-1.0087,-0.010248,4.06,0.56,3.71,-0.16772,-0.15834,0.17164,41.4877,-89.5062,183.126,19,1,21.2,981.4,274.348,1,0,0,
1443330,-0.042456,-1.0087,-0.010248,4.06,0.56,3.71,-0.16772,-0.15834,0.17164,41.4877,-89.5062,183.126,19,1,21.2,981.4,274.348,1,0,0,
1443340,-0.046848,-1.01236,-0.017568,3.99,0.28,3.92,-0.1701,-0.15372,0.17458,41.4877,-89.5062,183.126,19,1,21.22,981.6,272.612,1,0,0,
1443350,-0.046848,-1.01236,-0.017568,3.99,0.28,3.92,-0.1701,-0.15372,0.17458,41.4877,-89.5062,183.126,19,1,21.22,981.6,272.612,1,0,0,
1443360,-0.046848,-1.01236,-0.017568,3.99,0.28,3.92,-0.1701,-0.15372,0.17458,41.4877,-89.5062,183.126,19,1,21.22,981.6,272.612,1,0,0,
1443370,-0.04392,-1.01382,-0.020496,4.41,0.42,3.85,-0.16814,-0.15358,0.16394,41.4877,-89.5062,183.126,19,1,21.2,981.31,275.138,1,0,0,
1443380,-0.04392,-1.01382,-0.020496,4.41,0.42,3.85,-0.16814,-0.15358,0.16394,41.4877,-89.5062,183.126,19,1,21.2,981.31,275.138,1,0,0,
1443390,-0.043188,-1.01162,-0.016836,4.34,0.07,4.34,-0.16702,-0.15666,0.16562,41.4877,-89.5062,183.126,19,1,21.21,981.46,273.831,1,0,0,
1443400,-0.043188,-1.01162,-0.016836,4.34,0.07,4.34,-0.16702,-0.15666,0.16562,41.4877,-89.5062,183.127,19,1,21.21,981.46,273.831,1,0,0,
1443410,-0.043188,-1.01162,-0.016836,4.34,0.07,4.34,-0.16702,-0.15666,0.16562,41.4877,-89.5062,183.127,19,1,21.21,981.46,273.831,1,0,0,
1443420,-0.0366,-1.01455,-0.016104,3.99,0.28,3.85,-0.16646,-0.15834,0.16912,41.4877,-89.5062,183.127,19,1,21.2,981.42,274.172,1,0,0,
1443430,-0.0366,-1.01455,-0.016104,3.99,0.28,3.85,-0.16646,-0.15834,0.16912,41.4877,-89.5062,183.127,19,1,21.2,981.42,274.172,1,0,0,
1443440,-0.0366,-1.01455,-0.016104,3.99,0.28,3.85,-0.16646,-0.15834,0.16912,41.4877,-89.5062,183.127,19,1,21.2,981.42,274.172,1,0,0,
1443450,-0.038796,-1.01089,-0.0183,3.99,0.07,4.34,-0.17332,-0.15708,0.16744,41.4877,-89.5062,183.127,19,1,21.24,981.45,273.947,1,0,0,
1443460,-0.038796,-1.01089,-0.0183,3.99,0.07,4.34,-0.17332,-0.15708,0.16744,41.4877,-89.5062,183.127,19,1,21.24,981.45,273.947,1,0,0,
1443470,-0.0366,-1.01455,-0.00732,4.06,0.21,3.57,-0.168,-0.15946,0.1666,41.4877,-89.5062,183.127,19,1,21.21,981.41,274.269,1,0,0,
1443480,-0.0366,-1.01455,-0.00732,4.06,0.21,3.57,-0.168,-0.15946,0.1666,41.4877,-89.5062,183.127,19,1,21.21,981.41,274.269,1,0,0,
1443490,-0.0366,-1.01455,-0.00732,4.06,0.21,3.57,-0.168,-0.15946,0.1666,41.4877,-89.5062,183.127,19,1,21.21,981.41,274.269,1,0,0,
1443500,-0.0366,-1.01089,-0.01098,4.97,0.42,4.13,-0.16912,-0.16002,0.16268,41.4877,-89.5062,183.116,19,1,21.21,981.45,273.919,1,0,0,
1443510,-0.0366,-1.01089,-0.01098,4.97,0.42,4.13,-0.16912,-0.16002,0.16268,41.4877,-89.5062,183.116,19,1,21.21,981.45,273.919,1,0,0,
1443520,-0.0366,-1.01089,-0.01098,4.97,0.42,4.13,-0.16912,-0.16002,0.16268,41.4877,-89.5062,183.116,19,1,21.21,981.45,273.919,1,0,0,
1443530,-0.043188,-1.0065,-0.004392,3.99,0.21,3.78,-0.16576,-0.15946,0.16604,41.4877,-89.5062,183.116,19,1,21.21,981.41,274.269,1,0,0,
1443540,-0.043188,-1.0065,-0.004392,3.99,0.21,3.78,-0.16576,-0.15946,0.16604,41.4877,-89.5062,183.116,19,1,21.21,981.41,274.269,1,0,0,
1443550,-0.051972,-1.01089,-0.017568,4.27,0.14,3.99,-0.17192,-0.1561,0.16618,41.4877,-89.5062,183.116,19,1,21.21,981.47,273.743,1,0,0,
1443560,-0.051972,-1.01089,-0.017568,4.27,0.14,3.99,-0.17192,-0.1561,0.16618,41.4877,-89.5062,183.116,19,1,21.21,981.47,273.743,1,0,0,
1443570,-0.051972,-1.01089,-0.017568,4.27,0.14,3.99,-0.17192,-0.1561,0.16618,41.4877,-89.5062,183.116,19,1,21.21,981.47,273.743,1,0,0,
1443580,-0.038064,-1.01602,-0.002928,4.13,0.07,3.78,-0.16618,-0.1554,0.16688,41.4877,-89.5062,183.116,19,1,21.2,981.46,273.821,1,0,0,
1443590,-0.038064,-1.01602,-0.002928,4.13,0.07,3.78,-0.16618,-0.1554,0.16688,41.4877,-89.5062,183.116,19,1,21.2,981.46,273.821,1,0,0,
1443600,-0.038064,-1.01602,-0.002928,4.13,0.07,3.78,-0.16618,-0.1554,0.16688,41.4877,-89.5062,183.116,19,1,21.2,981.46,273.821,1,0,0,
1443610,-0.038796,-1.01162,-0.009516,4.2,-0.28,4.06,-0.16898,-0.15372,0.1666,41.4877,-89.5062,183.116,19,1,21.19,981.54,273.11,1,0,0,
1443620,-0.038796,-1.01162,-0.009516,4.2,-0.28,4.06,-0.16898,-0.15372,0.1666,41.4877,-89.5062,183.116,19,1,21.19,981.54,273.11,1,0,0,
1443630,-0.038796,-1.01162,-0.009516,4.2,-0.28,4.06,-0.16898,-0.15372,0.1666,41.4877,-89.5062,183.116,19,1,21.19,981.54,273.11,1,0,0,
1443640,-0.038796,-1.01162,-0.009516,4.2,-0.28,4.06,-0.16898,-0.15372,0.1666,41.4877,-89.5062,183.116,19,1,21.19,981.54,273.11,1,0,0,
1443650,-0.04392,-1.01089,-0.016104,4.13,-0.14,3.78,-0.168,-0.15428,0.17164,41.4877,-89.5062,183.116,19,1,21.18,981.37,274.592,1,0,0,
1443660,-0.04392,-1.01089,-0.016104,4.13,-0.14,3.78,-0.168,-0.15428,0.17164,41.4877,-89.5062,183.116,19,1,21.18,981.37,274.592,1,0,0,
1443670,-0.045384,-1.02187,-0.037332,4.27,-0.07,3.85,-0.16856,-0.15204,0.17486,41.4877,-89.5062,183.116,19,1,21.2,981.45,273.909,1,0,0,
1443680,-0.045384,-1.02187,-0.037332,4.27,-0.07,3.85,-0.16856,-0.15204,0.17486,41.4877,-89.5062,183.116,19,1,21.2,981.45,273.909,1,0,0,
1443690,-0.045384,-1.02187,-0.037332,4.27,-0.07,3.85,-0.16856,-0.15204,0.17486,41.4877,-89.5062,183.116,19,1,21.2,981.45,273.909,1,0,0,
1443700,-0.027816,-1.00357,-0.026352,4.62,0,3.85,-0.1701,-0.15526,0.17458,41.4877,-89.5062,183.116,19,1,21.23,981.58,272.796,1,0,0,
1443710,-0.027816,-1.00357,-0.026352,4.62,0,3.85,-0.1701,-0.15526,0.17458,41.4877,-89.5062,183.116,19,1,21.23,981.58,272.796,1,0,0,
1443720,-0.027816,-1.00357,-0.026352,4.62,0,3.85,-0.1701,-0.15526,0.17458,41.4877,-89.5062,183.116,19,1,21.23,981.58,272.796,1,0,0,
1443730,-0.031476,-1.01162,-0.008784,4.27,0.49,3.99,-0.17304,-0.15708,0.17038,41.4877,-89.5062,183.103,19,1,21.2,981.45,273.909,1,0,0,
1443740,-0.031476,-1.01162,-0.008784,4.27,0.49,3.99,-0.17304,-0.15708,0.17038,41.4877,-89.5062,183.103,19,1,21.2,981.45,273.909,1,0,0,
1443750,-0.030744,-1.01016,-0.02196,4.34,0.14,3.92,-0.16772,-0.16128,0.1743,41.4877,-89.5062,183.103,19,1,21.2,981.52,273.295,1,0,0,
1443760,-0.030744,-1.01016,-0.02196,4.34,0.14,3.92,-0.16772,-0.16128,0.1743,41.4877,-89.5062,183.103,19,1,21.2,981.52,273.295,1,0,0,
1443770,-0.030744,-1.01016,-0.02196,4.34,0.14,3.92,-0.16772,-0.16128,0.1743,41.4877,-89.5062,183.103,19,1,21.2,981.52,273.295,1,0,0,
1443780,-0.04026,-1.01162,-0.011712,4.48,0.42,3.71,-0.17192,-0.15694,0.17234,41.4877,-89.5062,183.103,19,1,21.2,981.44,273.997,1,0,0,
1443790,-0.04026,-1.01162,-0.011712,4.48,0.42,3.71,-0.17192,-0.15694,0.17234,41.4877,-89.5062,183.103,19,1,21.2,981.44,273.997,1,0,0,
1443800,-0.045384,-1.01162,-0.020496,4.55,0.91,4.34,-0.17486,-0.15778,0.17318,41.4877,-89.5062,183.103,19,1,21.2,981.41,274.26,1,0,0,
1443810,-0.045384,-1.01162,-0.020496,4.55,0.91,4.34,-0.17486,-0.15778,0.17318,41.4877,-89.5062,183.106,19,1,21.2,981.41,274.26,1,0,0,
1443820,-0.045384,-1.01162,-0.020496,4.55,0.91,4.34,-0.17486,-0.15778,0.17318,41.4877,-89.5062,183.106,19,1,21.2,981.41,274.26,1,0,0,
1443830,-0.04758,-1.0065,0.013908,4.06,0.49,3.92,-0.17164,-0.15806,0.17304,41.4877,-89.5062,183.106,19,1,21.19,981.34,274.865,1,0,0,
1443840,-0.04758,-1.0065,0.013908,4.06,0.49,3.92,-0.17164,-0.15806,0.17304,41.4877,-89.5062,183.106,19,1,21.19,981.34,274.865,1,0,0,
1443850,-0.04758,-1.0065,0.013908,4.06,0.49,3.92,-0.17164,-0.15806,0.17304,41.4877,-89.5062,183.106,19,1,21.19,981.34,274.865,1,0,0,
1443860,-0.046848,-1.01309,-0.00366,4.48,0.56,3.78,-0.1729,-0.15596,0.17318,41.4877,-89.5062,183.106,19,1,21.22,981.42,274.191,1,0,0,
1443870,-0.046848,-1.01309,-0.00366,4.48,0.56,3.78,-0.1729,-0.15596,0.17318,41.4877,-89.5062,183.106,19,1,21.22,981.42,274.191,1,0,0,
1443880,-0.037332,-1.00577,-0.0183,4.41,0.42,3.78,-0.16926,-0.14994,0.15876,41.4877,-89.5062,183.106,19,1,21.18,981.52,273.277,1,0,0,
1443890,-0.037332,-1.00577,-0.0183,4.41,0.42,3.78,-0.16926,-0.14994,0.15876,41.4877,-89.5062,183.106,19,1,21.18,981.52,273.277,1,0,0,
1443900,-0.037332,-1.00577,-0.0183,4.41,0.42,3.78,-0.16926,-0.14994,0.15876,41.4877,-89.5062,183.106,19,1,21.18,981.52,273.277,1,0,0,
1443910,-0.037332,-1.00577,-0.0183,4.41,0.42,3.78,-0.16926,-0.14994,0.15876,41.4877,-89.5062,183.106,19,1,21.18,981.52,273.277,1,0,0,
1443920,-0.037332,-1.00577,-0.0183,4.41,0.42,3.78,-0.16926,-0.14994,0.15876,41.4877,-89.5062,183.106,19,1,21.18,981.52,273.277,1,0,0,
1443930,-0.043188,-1.00943,-0.01464,4.69,0.35,3.85,-0.16576,-0.15386,0.16982,41.4877,-89.5062,183.106,19,1,21.17,981.33,274.934,1,0,0,
1443940,-0.043188,-1.00943,-0.01464,4.69,0.35,3.85,-0.16576,-0.15386,0.16982,41.4877,-89.5062,183.106,19,1,21.17,981.33,274.934,1,0,0,
1443950,-0.04026,-1.01528,-0.015372,4.27,0.07,3.92,-0.17388,-0.15512,0.1687,41.4877,-89.5062,183.106,19,1,21.18,981.46,273.803,1,0,0,
1443960,-0.04026,-1.01528,-0.015372,4.27,0.07,3.92,-0.17388,-0.15512,0.1687,41.4877,-89.5062,183.106,19,1,21.18,981.46,273.803,1,0,0,
1443970,-0.04026,-1.01528,-0.015372,4.27,0.07,3.92,-0.17388,-0.15512,0.1687,41.4877,-89.5062,183.106,19,1,21.18,981.46,273.803,1,0,0,
1443980,-0.033672,-1.01382,-0.016836,4.55,0,3.85,-0.168,-0.154,0.1687,41.4877,-89.5062,183.106,19,1,21.18,981.33,274.943,1,0,0,
1443990,-0.033672,-1.01382,-0.016836,4.55,0,3.85,-0.168,-0.154,0.1687,41.4877,-89.5062,183.106,19,1,21.18,981.33,274.943,1,0,0,
1444000,-0.035868,-1.01309,-0.022692,4.13,0.35,3.92,-0.16954,-0.15064,0.16772,41.4877,-89.5062,183.077,19,1,21.19,981.49,273.549,1,0,0,
1444010,-0.035868,-1.01309,-0.022692,4.13,0.35,3.92,-0.16954,-0.15064,0.16772,41.4877,-89.5062,183.077,19,1,21.19,981.49,273.549,1,0,0,
1444020,-0.035868,-1.01309,-0.022692,4.13,0.35,3.92,-0.16954,-0.15064,0.16772,41.4877,-89.5062,183.077,19,1,21.19,981.49,273.549,1,0,0,
1444030,-0.035868,-1.0087,-0.0183,4.34,0.07,3.99,-0.16646,-0.15442,0.17066,41.4877,-89.5062,183.077,19,1,21.18,981.31,275.119,1,0,0,
1444040,-0.035868,-1.0087,-0.0183,4.34,0.07,3.99,-0.16646,-0.15442,0.17066,41.4877,-89.5062,183.077,19,1,21.18,981.31,275.119,1,0,0,
1444050,-0.035868,-1.0087,-0.0183,4.34,0.07,3.99,-0.16646,-0.15442,0.17066,41.4877,-89.5062,183.077,19,1,21.18,981.31,275.119,1,0,0,
1444060,-0.038064,-1.01675,-0.01098,4.55,0.07,3.99,-0.17094,-0.15638,0.1659,41.4877,-89.5062,183.077,19,1,21.18,981.42,274.154,1,0,0,
1444070,-0.038064,-1.01675,-0.01098,4.55,0.07,3.99,-0.17094,-0.15638,0.1659,41.4877,-89.5062,183.077,19,1,21.18,981.42,274.154,1,0,0,
1444080,-0.037332,-1.01016,-0.021228,3.99,0.49,3.92,-0.16702,-0.15372,0.16912,41.4877,-89.5062,183.077,19,1,21.17,981.43,274.056,1,0,0,
1444090,-0.037332,-1.01016,-0.021228,3.99,0.49,3.92,-0.16702,-0.15372,0.16912,41.4877,-89.5062,183.077,19,1,21.17,981.43,274.056,1,0,0,
1444100,-0.037332,-1.01016,-0.021228,3.99,0.49,3.92,-0.16702,-0.15372,0.16912,41.4877,-89.5062,183.077,19,1,21.17,981.43,274.056,1,0,0,
1444110,-0.037332,-1.01016,-0.021228,3.99,0.49,3.92,-0.16702,-0.15372,0.16912,41.4877,-89.5062,183.077,19,1,21.17,981.43,274.056,1,0,0,
1444120,-0.044652,-1.01382,-0.026352,4.13,0.35,3.85,-0.17318,-0.154,0.15792,41.4877,-89.5062,183.077,19,1,21.2,981.48,273.646,1,0,0,
1444130,-0.044652,-1.01382,-0.026352,4.13,0.35,3.85,-0.17318,-0.154,0.15792,41.4877,-89.5062,183.077,19,1,21.2,981.48,273.646,1,0,0,
1444140,-0.044652,-1.01382,-0.026352,4.13,0.35,3.85,-0.17318,-0.154,0.15792,41.4877,-89.5062,183.077,19,1,21.2,981.48,273.646,1,0,0,
1444150,-0.049044,-1.01016,-0.024888,4.2,0,3.99,-0.16716,-0.15526,0.16422,41.4877,-89.5062,183.077,19,1,21.16,981.37,274.574,1,0,0,
1444160,-0.049044,-1.01016,-0.024888,4.2,0,3.99,-0.16716,-0.15526,0.16422,41.4877,-89.5062,183.077,19,1,21.16,981.37,274.574,1,0,0,
1444170,-0.049044,-1.01016,-0.024888,4.2,0,3.99,-0.16716,-0.15526,0.16422,41.4877,-89.5062,183.077,19,1,21.16,981.37,274.574,1,0,0,
1444180,-0.035868,-1.01528,-0.011712,4.48,0.14,3.78,-0.17038,-0.15232,0.16436,41.4877,-89.5062,183.077,19,1,21.19,981.49,273.549,1,0,0,
1444190,-0.035868,-1.01528,-0.011712,4.48,0.14,3.78,-0.17038,-0.15232,0.16436,41.4877,-89.5062,183.077,19,1,21.19,981.49,273.549,1,0,0,
1444200,-0.043188,-1.01602,-0.02196,4.41,0.56,3.78,-0.17024,-0.15386,0.17136,41.4877,-89.5062,183.065,19,1,21.17,981.36,274.671,1,0,0,
1444210,-0.043188,-1.01602,-0.02196,4.41,0.56,3.78,-0.17024,-0.15386,0.17136,41.4877,-89.5062,183.065,19,1,21.17,981.36,274.671,1,0,0,
1444220,-0.043188,-1.01602,-0.02196,4.41,0.56,3.78,-0.17024,-0.15386,0.17136,41.4877,-89.5062,183.065,19,1,21.17,981.36,274.671,1,0,0,
1444230,-0.040992,-1.01236,-0.015372,4.34,0.28,3.92,-0.17094,-0.15736,0.16338,41.4877,-89.5062,183.065,19,1,21.18,981.38,274.504,1,0,0,
1444240,-0.040992,-1.01236,-0.015372,4.34,0.28,3.92,-0.17094,-0.15736,0.16338,41.4877,-89.5062,183.065,19,1,21.18,981.38,274.504,1,0,0,
1444250,-0.040992,-1.01236,-0.015372,4.34,0.28,3.92,-0.17094,-0.15736,0.16338,41.4877,-89.5062,183.065,19,1,21.18,981.38,274.504,1,0,0,
1444260,-0.046848,-1.00796,-0.0183,3.99,0.28,3.64,-0.16884,-0.1561,0.15918,41.4877,-89.5062,183.065,19,1,21.16,981.47,273.696,1,0,0,
1444270,-0.046848,-1.00796,-0.0183,3.99,0.28,3.64,-0.16884,-0.1561,0.15918,41.4877,-89.5062,183.065,19,1,21.16,981.47,273.696,1,0,0,
1444280,-0.041724,-1.01162,-0.016104,4.27,0,3.78,-0.1687,-0.15736,0.1673,41.4877,-89.5062,183.065,19,1,21.17,981.44,273.969,1,0,0,
1444290,-0.041724,-1.01162,-0.016104,4.27,0,3.78,-0.1687,-0.15736,0.1673,41.4877,-89.5062,183.065,19,1,21.17,981.44,273.969,1,0,0,
1444300,-0.041724,-1.01162,-0.016104,4.27,0,3.78,-0.1687,-0.15736,0.1673,41.4877,-89.5062,183.065,19,1,21.17,981.44,273.969,1,0,0,
1444310,-0.041724,-1.01162,-0.016104,4.27,0,3.78,-0.1687,-0.15736,0.1673,41.4877,-89.5062,183.065,19,1,21.17,981.44,273.969,1,0,0,
1444320,-0.056364,-1.01236,-0.039528,4.48,0.21,3.99,-0.16856,-0.15358,0.1659,41.4877,-89.5062,183.065,19,1,21.18,981.45,273.891,1,0,0,
1444330,-0.056364,-1.01236,-0.039528,4.48,0.21,3.99,-0.16856,-0.15358,0.1659,41.4877,-89.5062,183.065,19,1,21.18,981.45,273.891,1,0,0,
1444340,-0.056364,-1.01236,-0.039528,4.48,0.21,3.99,-0.16856,-0.15358,0.1659,41.4877,-89.5062,183.065,19,1,21.18,981.45,273.891,1,0,0,
1444350,-0.0366,-1.01236,-0.0183,4.55,-0.14,3.71,-0.16492,-0.1533,0.16506,41.4877,-89.5062,183.065,19,1,21.18,981.53,273.189,1,0,0,
1444360,-0.0366,-1.01236,-0.0183,4.55,-0.14,3.71,-0.16492,-0.1533,0.16506,41.4877,-89.5062,183.065,19,1,21.18,981.53,273.189,1,0,0,
1444370,-0.0366,-1.01236,-0.0183,4.55,-0.14,3.71,-0.16492,-0.1533,0.16506,41.4877,-89.5062,183.065,19,1,21.18,981.53,273.189,1,0,0,
1444380,-0.048312,-1.01382,-0.006588,4.41,0.91,3.78,-0.16912,-0.1582,0.16842,41.4877,-89.5062,183.065,19,1,21.16,981.5,273.433,1,0,0,
1444390,-0.048312,-1.01382,-0.006588,4.41,0.91,3.78,-0.16912,-0.1582,0.16842,41.4877,-89.5062,183.065,19,1,21.16,981.5,273.433,1,0,0,
1444400,-0.035868,-1.0065,-0.030744,3.85,0.35,3.99,-0.16842,-0.15568,0.15974,41.4877,-89.5062,183.074,19,1,21.18,981.38,274.504,1,0,0,
1444410,-0.035868,-1.0065,-0.030744,3.85,0.35,3.99,-0.16842,-0.15568,0.15974,41.4877,-89.5062,183.074,19,1,21.18,981.38,274.504,1,0,0,
1444420,-0.035868,-1.0065,-0.030744,3.85,0.35,3.99,-0.16842,-0.15568,0.15974,41.4877,-89.5062,183.074,19,1,21.18,981.38,274.504,1,0,0,
1444430,-0.039528,-1.01236,-0.012444,4.41,0.56,3.64,-0.17206,-0.15274,0.16478,41.4877,-89.5062,183.074,19,1,21.18,981.45,273.891,1,0,0,
1444440,-0.039528,-1.01236,-0.012444,4.41,0.56,3.64,-0.17206,-0.15274,0.16478,41.4877,-89.5062,183.074,19,1,21.18,981.45,273.891,1,0,0,
1444450,-0.033672,-1.01309,-0.016104,4.48,0.21,3.92,-0.16884,-0.15316,0.16674,41.4877,-89.5062,183.074,19,1,21.2,981.53,273.207,1,0,0,
1444460,-0.033672,-1.01309,-0.016104,4.48,0.21,3.92,-0.16884,-0.15316,0.16674,41.4877,-89.5062,183.074,19,1,21.2,981.53,273.207,1,0,0,
1444470,-0.033672,-1.01309,-0.016104,4.48,0.21,3.92,-0.16884,-0.15316,0.16674,41.4877,-89.5062,183.074,19,1,21.2,981.53,273.207,1,0,0,
1444480,-0.051972,-1.01675,-0.043188,4.62,0.49,3.92,-0.16618,-0.16086,0.16954,41.4877,-89.5062,183.074,19,1,21.17,981.48,273.618,1,0,0,
1444490,-0.051972,-1.01675,-0.043188,4.62,0.49,3.92,-0.16618,-0.16086,0.16954,41.4877,-89.5062,183.074,19,1,21.17,981.48,273.618,1,0,0,
1444500,-0.051972,-1.01675,-0.043188,4.62,0.49,3.92,-0.16618,-0.16086,0.16954,41.4877,-89.5062,183.074,19,1,21.17,981.48,273.618,1,0,0,
1444510,-0.051972,-1.01675,-0.043188,4.62,0.49,3.92,-0.16618,-0.16086,0.16954,41.4877,-89.5062,183.074,19,1,21.17,981.48,273.618,1,0,0,
1444520,-0.046848,-1.00284,-0.023424,3.92,0.14,3.99,-0.16702,-0.1554,0.16534,41.4877,-89.5062,183.074,19,1,21.17,981.39,274.408,1,0,0,
1444530,-0.046848,-1.00284,-0.023424,3.92,0.14,3.99,-0.16702,-0.1554,0.16534,41.4877,-89.5062,183.074,19,1,21.17,981.39,274.408,1,0,0,
1444540,-0.046848,-1.00284,-0.023424,3.92,0.14,3.99,-0.16702,-0.1554,0.16534,41.4877,-89.5062,183.074,19,1,21.17,981.39,274.408,1,0,0,
1444550,-0.037332,-1.01748,-0.013176,4.48,0.42,3.85,-0.16604,-0.15512,0.16716,41.4877,-89.5062,183.074,19,1,21.18,981.47,273.715,1,0,0,
1444560,-0.037332,-1.01748,-0.013176,4.48,0.42,3.85,-0.16604,-0.15512,0.16716,41.4877,-89.5062,183.074,19,1,21.18,981.47,273.715,1,0,0,
1444570,-0.044652,-1.00943,-0.019032,4.06,0.42,3.99,-0.1694,-0.15246,0.16408,41.4877,-89.5062,183.074,19,1,21.2,981.34,274.874,1,0,0,
1444580,-0.044652,-1.00943,-0.019032,4.06,0.42,3.99,-0.1694,-0.15246,0.16408,41.4877,-89.5062,183.074,19,1,21.2,981.34,274.874,1,0,0,
1444590,-0.044652,-1.00943,-0.019032,4.06,0.42,3.99,-0.1694,-0.15246,0.16408,41.4877,-89.5062,183.074,19,1,21.2,981.34,274.874,1,0,0,
1444600,-0.040992,-1.0043,-0.010248,4.48,0.84,3.64,-0.1687,-0.1568,0.17192,41.4877,-89.5062,183.059,19,1,21.17,981.38,274.495,1,0,0,
1444610,-0.040992,-1.0043,-0.010248,4.48,0.84,3.64,-0.1687,-0.1568,0.17192,41.4877,-89.5062,183.059,19,1,21.17,981.38,274.495,1,0,0,
1444620,-0.040992,-1.0043,-0.010248,4.48,0.84,3.64,-0.1687,-0.1568,0.17192,41.4877,-89.5062,183.059,19,1,21.17,981.38,274.495,1,0,0,
1444630,-0.054168,-0.992592,-0.01098,4.13,0.28,3.92,-0.16912,-0.15624,0.1638,41.4877,-89.5062,183.059,19,1,21.18,981.41,274.241,1,0,0,
1444640,-0.054168,-0.992592,-0.01098,4.13,0.28,3.92,-0.16912,-0.15624,0.1638,41.4877,-89.5062,183.059,19,1,21.18,981.41,274.241,1,0,0,
1444650,-0.044652,-1.01602,-0.023424,4.27,0.07,3.99,-0.16772,-0.15288,0.1736,41.4877,-89.5062,183.059,19,1,21.21,981.47,273.743,1,0,0,
1444660,-0.044652,-1.01602,-0.023424,4.27,0.07,3.99,-0.16772,-0.15288,0.1736,41.4877,-89.5062,183.059,19,1,21.21,981.47,273.743,1,0,0,
1444670,-0.044652,-1.01602,-0.023424,4.27,0.07,3.99,-0.16772,-0.15288,0.1736,41.4877,-89.5062,183.059,19,1,21.21,981.47,273.743,1,0,0,
1444680,-0.04758,-1.01236,-0.020496,4.41,-0.56,3.99,-0.16562,-0.15456,0.17178,41.4877,-89.5062,183.059,19,1,21.17,981.43,274.056,1,0,0,
1444690,-0.04758,-1.01236,-0.020496,4.41,-0.56,3.99,-0.16562,-0.15456,0.17178,41.4877,-89.5062,183.059,19,1,21.17,981.43,274.056,1,0,0,
1444700,-0.04758,-1.01236,-0.020496,4.41,-0.56,3.99,-0.16562,-0.15456,0.17178,41.4877,-89.5062,183.059,19,1,21.17,981.43,274.056,1,0,0,
1444710,-0.04758,-1.01236,-0.020496,4.41,-0.56,3.99,-0.16562,-0.15456,0.17178,41.4877,-89.5062,183.059,19,1,21.17,981.43,274.056,1,0,0,
1444720,-0.035868,-1.01528,-0.026352,4.41,0,4.27,-0.1666,-0.15134,0.1652,41.4877,-89.5062,183.059,19,1,21.18,981.45,273.891,1,0,0,
1444730,-0.035868,-1.01528,-0.026352,4.41,0,4.27,-0.1666,-0.15134,0.1652,41.4877,-89.5062,183.059,19,1,21.18,981.45,273.891,1,0,0,
1444740,-0.035868,-1.01528,-0.026352,4.41,0,4.27,-0.1666,-0.15134,0.1652,41.4877,-89.5062,183.059,19,1,21.18,981.45,273.891,1,0,0,
1444750,-0.040992,-1.01748,-0.019764,4.76,0,3.92,-0.16828,-0.15498,0.16268,41.4877,-89.5062,183.059,19,1,21.16,981.29,275.276,1,0,0,
1444760,-0.040992,-1.01748,-0.019764,4.76,0,3.92,-0.16828,-0.15498,0.16268,41.4877,-89.5062,183.059,19,1,21.16,981.29,275.276,1,0,0,
1444770,-0.048312,-1.01382,-0.00732,4.27,0.21,3.64,-0.16408,-0.15638,0.16338,41.4877,-89.5062,183.059,19,1,21.19,981.35,274.777,1,0,0,
1444780,-0.048312,-1.01382,-0.00732,4.27,0.21,3.64,-0.16408,-0.15638,0.16338,41.4877,-89.5062,183.059,19,1,21.19,981.35,274.777,1,0,0,
1444790,-0.048312,-1.01382,-0.00732,4.27,0.21,3.64,-0.16408,-0.15638,0.16338,41.4877,-89.5062,183.059,19,1,21.19,981.35,274.777,1,0,0,
1444800,-0.041724,-1.00943,-0.016104,4.34,0.21,3.92,-0.17248,-0.15484,0.17164,41.4877,-89.5062,183.03,19,1,21.18,981.4,274.329,1,0,0,
1444810,-0.041724,-1.00943,-0.016104,4.34,0.21,3.92,-0.17248,-0.15484,0.17164,41.4877,-89.5062,183.03,19,1,21.18,981.4,274.329,1,0,0,
1444820,-0.041724,-1.00943,-0.016104,4.34,0.21,3.92,-0.17248,-0.15484,0.17164,41.4877,-89.5062,183.03,19,1,21.18,981.4,274.329,1,0,0,
1444830,-0.043188,-1.01382,-0.02196,3.99,0,4.13,-0.17178,-0.15498,0.17052,41.4877,-89.5062,183.03,19,1,21.16,981.45,273.872,1,0,0,
1444840,-0.043188,-1.01382,-0.02196,3.99,0,4.13,-0.17178,-0.15498,0.17052,41.4877,-89.5062,183.03,19,1,21.16,981.45,273.872,1,0,0,
1444850,-0.046848,-1.01236,-0.022692,4.13,-0.28,3.99,-0.17108,-0.15582,0.16562,41.4877,-89.5062,183.03,19,1,21.2,981.44,273.997,1,0,0,
1444860,-0.046848,-1.01236,-0.022692,4.13,-0.28,3.99,-0.17108,-0.15582,0.16562,41.4877,-89.5062,183.03,19,1,21.2,981.44,273.997,1,0,0,
1444870,-0.046848,-1.01236,-0.022692,4.13,-0.28,3.99,-0.17108,-0.15582,0.16562,41.4877,-89.5062,183.03,19,1,21.2,981.44,273.997,1,0,0,
1444880,-0.035136,-1.02114,-0.013176,4.55,0.28,4.06,-0.17052,-0.14854,0.16702,41.4877,-89.5062,183.03,19,1,21.17,981.47,273.706,1,0,0,
1444890,-0.035136,-1.02114,-0.013176,4.55,0.28,4.06,-0.17052,-0.14854,0.16702,41.4877,-89.5062,183.03,19,1,21.17,981.47,273.706,1,0,0,
1444900,-0.035136,-1.02114,-0.013176,4.55,0.28,4.06,-0.17052,-0.14854,0.16702,41.4877,-89.5062,183.03,19,1,21.17,981.47,273.706,1,0,0,
1444910,-0.035136,-1.02114,-0.013176,4.55,0.28,4.06,-0.17052,-0.14854,0.16702,41.4877,-89.5062,183.03,19,1,21.17,981.47,273.706,1,0,0,
1444920,-0.049044,-1.01089,-0.023424,4.34,0.49,4.06,-0.16828,-0.15456,0.168,41.4877,-89.5062,183.03,19,1,21.16,981.53,273.17,1,0,0,
1444930,-0.049044,-1.01089,-0.023424,4.34,0.49,4.06,-0.16828,-0.15456,0.168,41.4877,-89.5062,183.03,19,1,21.16,981.53,273.17,1,0,0,
1444940,-0.049044,-1.01089,-0.023424,4.34,0.49,4.06,-0.16828,-0.15456,0.168,41.4877,-89.5062,183.03,19,1,21.16,981.53,273.17,1,0,0,
1444950,-0.031476,-1.01455,-0.019032,4.34,-0.14,3.99,-0.17164,-0.154,0.16618,41.4877,-89.5062,183.03,19,1,21.15,981.31,275.091,1,0,0,
1444960,-0.031476,-1.01455,-0.019032,4.34,-0.14,3.99,-0.17164,-0.154,0.16618,41.4877,-89.5062,183.03,19,1,21.15,981.31,275.091,1,0,0,
1444970,-0.044652,-1.02114,-0.02196,4.13,-0.56,3.85,-0.168,-0.1554,0.1673,41.4877,-89.5062,183.03,19,1,21.19,981.49,273.549,1,0,0,
1444980,-0.044652,-1.02114,-0.02196,4.13,-0.56,3.85,-0.168,-0.1554,0.1673,41.4877,-89.5062,183.03,19,1,21.19,981.49,273.549,1,0,0,
1444990,-0.044652,-1.02114,-0.02196,4.13,-0.56,3.85,-0.168,-0.1554,0.1673,41.4877,-89.5062,183.03,19,1,21.19,981.49,273.549,1,0,0,
1445000,-0.045384,-1.00357,-0.024888,4.27,-0.42,3.85,-0.16898,-0.15456,0.16716,41.4877,-89.5062,183.028,19,1,21.19,981.45,273.9,1,0,0,
1445010,-0.045384,-1.00357,-0.024888,4.27,-0.42,3.85,-0.16898,-0.15456,0.16716,41.4877,-89.5062,183.028,19,1,21.19,981.45,273.9,1,0,0,
1445020,-0.050508,-1.02187,-0.019032,4.41,-0.35,3.78,-0.1694,-0.15834,0.16772,41.4877,-89.5062,183.028,19,1,21.18,981.48,273.627,1,0,0,
1445030,-0.050508,-1.02187,-0.019032,4.41,-0.35,3.78,-0.1694,-0.15834,0.16772,41.4877,-89.5062,183.028,19,1,21.18,981.48,273.627,1,0,0,
1445040,-0.050508,-1.02187,-0.019032,4.41,-0.35,3.78,-0.1694,-0.15834,0.16772,41.4877,-89.5062,183.028,19,1,21.18,981.48,273.627,1,0,0,
1445050,-0.037332,-1.01382,-0.019764,4.62,0.21,3.92,-0.168,-0.15568,0.16604,41.4877,-89.5062,183.028,19,1,21.18,981.46,273.803,1,0,0,
1445060,-0.037332,-1.01382,-0.019764,4.62,0.21,3.92,-0.168,-0.15568,0.16604,41.4877,-89.5062,183.028,19,1,21.18,981.46,273.803,1,0,0,
1445070,-0.037332,-1.01382,-0.019764,4.62,0.21,3.92,-0.168,-0.15568,0.16604,41.4877,-89.5062,183.028,19,1,21.18,981.46,273.803,1,0,0,
1445080,-0.04026,-1.01162,-0.019764,4.13,-0.56,4.13,-0.17108,-0.16072,0.16646,41.4877,-89.5062,183.028,19,1,21.17,981.46,273.793,1,0,0,
1445090,-0.04026,-1.01162,-0.019764,4.13,-0.56,4.13,-0.17108,-0.16072,0.16646,41.4877,-89.5062,183.028,19,1,21.17,981.46,273.793,1,0,0,
1445100,-0.04026,-1.01162,-0.019764,4.13,-0.56,4.13,-0.17108,-0.16072,0.16646,41.4877,-89.5062,183.028,19,1,21.17,981.46,273.793,1,0,0,
1445110,-0.04026,-1.01162,-0.019764,4.13,-0.56,4.13,-0.17108,-0.16072,0.16646,41.4877,-89.5062,183.028,19,1,21.17,981.46,273.793,1,0,0,
1445120,-0.044652,-1.01236,-0.030012,3.92,0.14,3.92,-0.1715,-0.15904,0.1659,41.4877,-89.5062,183.028,19,1,21.17,981.5,273.442,1,0,0,
1445130,-0.044652,-1.01236,-0.030012,3.92,0.14,3.92,-0.1715,-0.15904,0.1659,41.4877,-89.5062,183.028,19,1,21.17,981.5,273.442,1,0,0,
1445140,-0.044652,-1.01236,-0.030012,3.92,0.14,3.92,-0.1715,-0.15904,0.1659,41.4877,-89.5062,183.028,19,1,21.17,981.5,273.442,1,0,0,
1445150,-0.04758,-1.01602,-0.016836,4.62,0.28,3.71,-0.16982,-0.1596,0.16394,41.4877,-89.5062,183.028,19,1,21.15,981.34,274.828,1,0,0,
1445160,-0.04758,-1.01602,-0.016836,4.62,0.28,3.71,-0.16982,-0.1596,0.16394,41.4877,-89.5062,183.028,19,1,21.15,981.34,274.828,1,0,0,
1445170,-0.038064,-1.01162,-0.019032,4.48,0.21,3.99,-0.16828,-0.15918,0.17038,41.4877,-89.5062,183.028,19,1,21.17,981.51,273.355,1,0,0,
1445180,-0.038064,-1.01162,-0.019032,4.48,0.21,3.99,-0.16828,-0.15918,0.17038,41.4877,-89.5062,183.028,19,1,21.17,981.51,273.355,1,0,0,
1445190,-0.038064,-1.01162,-0.019032,4.48,0.21,3.99,-0.16828,-0.15918,0.17038,41.4877,-89.5062,183.028,19,1,21.17,981.51,273.355,1,0,0,
1445200,-0.057096,-1.00943,-0.005856,4.2,0.21,3.92,-0.16842,-0.15792,0.17234,41.4877,-89.5062,183.041,19,1,21.19,981.48,273.637,1,0,0,
1445210,-0.057096,-1.00943,-0.005856,4.2,0.21,3.92,-0.16842,-0.15792,0.17234,41.4877,-89.5062,183.041,19,1,21.19,981.48,273.637,1,0,0,
1445220,-0.038064,-1.01382,-0.010248,4.34,0.63,3.71,-0.16534,-0.15666,0.16548,41.4877,-89.5062,183.041,19,1,21.17,981.38,274.495,1,0,0,
1445230,-0.038064,-1.01382,-0.010248,4.34,0.63,3.71,-0.16534,-0.15666,0.16548,41.4877,-89.5062,183.041,19,1,21.17,981.38,274.495,1,0,0,
1445240,-0.038064,-1.01382,-0.010248,4.34,0.63,3.71,-0.16534,-0.15666,0.16548,41.4877,-89.5062,183.041,19,1,21.17,981.38,274.495,1,0,0,
1445250,-0.040992,-1.01455,-0.016836,3.71,0.42,3.92,-0.16968,-0.1561,0.16016,41.4877,-89.5062,183.041,19,1,21.19,981.34,274.865,1,0,0,
1445260,-0.040992,-1.01455,-0.016836,3.71,0.42,3.92,-0.16968,-0.1561,0.16016,41.4877,-89.5062,183.041,19,1,21.19,981.34,274.865,1,0,0,
1445270,-0.040992,-1.01455,-0.016836,3.71,0.42,3.92,-0.16968,-0.1561,0.16016,41.4877,-89.5062,183.041,19,1,21.19,981.34,274.865,1,0,0,
1445280,-0.046116,-1.01748,-0.05856,4.41,-0.21,3.78,-0.16702,-0.15512,0.16408,41.4877,-89.5062,183.022,19,1,21.19,981.56,272.935,1,0,0,
1445290,-0.046116,-1.01748,-0.05856,4.41,-0.21,3.78,-0.16702,-0.15512,0.16408,41.4877,-89.5062,183.022,19,1,21.19,981.56,272.935,1,0,0,
1445300,-0.04392,-1.01748,-0.013176,4.2,0.49,4.06,-0.17024,-0.15484,0.168,41.4877,-89.5062,183.022,19,1,21.19,981.47,273.724,1,0,0,
1445310,-0.04392,-1.01748,-0.013176,4.2,0.49,4.06,-0.17024,-0.15484,0.168,41.4877,-89.5062,183.022,19,1,21.19,981.47,273.724,1,0,0,
1445320,-0.04392,-1.01748,-0.013176,4.2,0.49,4.06,-0.17024,-0.15484,0.168,41.4877,-89.5062,183.022,19,1,21.19,981.47,273.724,1,0,0,
1445330,-0.041724,-1.01602,-0.027084,4.2,0.07,4.27,-0.16744,-0.1547,0.16058,41.4877,-89.5062,183.022,19,1,21.19,981.47,273.724,1,0,0,
1445340,-0.041724,-1.01602,-0.027084,4.2,0.07,4.27,-0.16744,-0.1547,0.16058,41.4877,-89.5062,183.022,19,1,21.19,981.47,273.724,1,0,0,
1445350,-0.0366,-1.01016,-0.0183,4.2,0.28,3.78,-0.16674,-0.1561,0.16618,41.4877,-89.5062,183.022,19,1,21.2,981.47,273.733,1,0,0,
1445360,-0.0366,-1.01016,-0.0183,4.2,0.28,3.78,-0.16674,-0.1561,0.16618,41.4877,-89.5062,183.014,19,1,21.2,981.47,273.733,1,0,0,
1445370,-0.0366,-1.01016,-0.0183,4.2,0.28,3.78,-0.16674,-0.1561,0.16618,41.4877,-89.5062,183.014,19,1,21.2,981.47,273.733,1,0,0,
1445380,-0.0366,-1.01968,-0.019032,4.13,0.63,3.78,-0.16352,-0.16016,0.16884,41.4877,-89.5062,183.014,19,1,21.19,981.41,274.251,1,0,0,
1445390,-0.0366,-1.01968,-0.019032,4.13,0.63,3.78,-0.16352,-0.16016,0.16884,41.4877,-89.5062,183.014,19,1,21.19,981.41,274.251,1,0,0,
1445400,-0.0366,-1.01968,-0.019032,4.13,0.63,3.78,-0.16352,-0.16016,0.16884,41.4877,-89.5062,183.014,19,1,21.19,981.41,274.251,1,0,0,
1445410,-0.035136,-1.01675,0.001464,3.99,0.21,4.13,-0.17276,-0.15904,0.1659,41.4877,-89.5062,183.014,19,1,21.2,981.43,274.084,1,0,0,
1445420,-0.035136,-1.01675,0.001464,3.99,0.21,4.13,-0.17276,-0.15904,0.1659,41.4877,-89.5062,183.014,19,1,21.2,981.43,274.084,1,0,0,
1445430,-0.061488,-1.00577,-0.005856,3.85,-0.07,3.92,-0.17038,-0.15484,0.16632,41.4877,-89.5062,183.014,19,1,21.2,981.45,273.909,1,0,0,
1445440,-0.061488,-1.00577,-0.005856,3.85,-0.07,3.92,-0.17038,-0.15484,0.16632,41.4877,-89.5062,183.014,19,1,21.2,981.45,273.909,1,0,0,
1445450,-0.061488,-1.00577,-0.005856,3.85,-0.07,3.92,-0.17038,-0.15484,0.16632,41.4877,-89.5062,183.014,19,1,21.2,981.45,273.909,1,0,0,
1445460,-0.04392,-1.01382,-0.019032,3.71,0.14,3.57,-0.16926,-0.15358,0.16534,41.4877,-89.5062,183.008,19,1,21.2,981.46,273.821,1,0,0,
1445470,-0.04392,-1.01382,-0.019032,3.71,0.14,3.57,-0.16926,-0.15358,0.16534,41.4877,-89.5062,183.008,19,1,21.2,981.46,273.821,1,0,0,
1445480,-0.051972,-1.01382,-0.02196,4.34,-0.21,4.27,-0.16282,-0.1561,0.16842,41.4877,-89.5062,183.008,19,1,21.22,981.57,272.875,1,0,0,
1445490,-0.051972,-1.01382,-0.02196,4.34,-0.21,4.27,-0.16282,-0.1561,0.16842,41.4877,-89.5062,183.008,19,1,21.22,981.57,272.875,1,0,0,
1445500,-0.051972,-1.01382,-0.02196,4.34,-0.21,4.27,-0.16282,-0.1561,0.16842,41.4877,-89.5062,183.008,19,1,21.22,981.57,272.875,1,0,0,
1445510,-0.039528,-1.01162,-0.016836,4.13,0.21,4.2,-0.16814,-0.15638,0.16954,41.4877,-89.5062,183.008,19,1,21.18,981.41,274.241,1,0,0,
1445520,-0.039528,-1.01162,-0.016836,4.13,0.21,4.2,-0.16814,-0.15638,0.16954,41.4877,-89.5062,183.008,19,1,21.18,981.41,274.241,1,0,0,
1445530,-0.039528,-1.01162,-0.016836,4.13,0.21,4.2,-0.16814,-0.15638,0.16954,41.4877,-89.5062,183.008,19,1,21.18,981.41,274.241,1,0,0,
1445540,-0.038796,-1.00943,-0.006588,4.13,0.42,3.85,-0.1659,-0.15498,0.16506,41.4877,-89.5062,183.004,19,1,21.2,981.41,274.26,1,0,0,
1445550,-0.038796,-1.00943,-0.006588,4.13,0.42,3.85,-0.1659,-0.15498,0.16506,41.4877,-89.5062,183.004,19,1,21.2,981.41,274.26,1,0,0,
1445560,-0.05124,-1.00796,-0.016836,4.62,-0.28,3.85,-0.1673,-0.15456,0.16002,41.4877,-89.5062,183.004,19,1,21.2,981.51,273.383,1,0,0,
1445570,-0.05124,-1.00796,-0.016836,4.62,-0.28,3.85,-0.1673,-0.15456,0.16002,41.4877,-89.5062,183.004,19,1,21.2,981.51,273.383,1,0,0,
1445580,-0.05124,-1.00796,-0.016836,4.62,-0.28,3.85,-0.1673,-0.15456,0.16002,41.4877,-89.5062,183.004,19,1,21.2,981.51,273.383,1,0,0,
1445590,-0.049044,-1.0065,-0.006588,4.41,0.28,3.85,-0.16996,-0.15568,0.16114,41.4877,-89.5062,183.004,19,1,21.21,981.46,273.831,1,0,0,
1445600,-0.049044,-1.0065,-0.006588,4.41,0.28,3.85,-0.16996,-0.15568,0.16114,41.4877,-89.5062,183.004,19,1,21.21,981.46,273.831,1,0,0,
1445610,-0.049044,-1.0065,-0.006588,4.41,0.28,3.85,-0.16996,-0.15568,0.16114,41.4877,-89.5062,183.004,19,1,21.21,981.46,273.831,1,0,0,
1445620,-0.037332,-1.01016,-0.00366,4.2,0.21,3.64,-0.16632,-0.15582,0.16226,41.4877,-89.5062,183.01,19,1,21.21,981.41,274.269,1,0,0,
1445630,-0.037332,-1.01016,-0.00366,4.2,0.21,3.64,-0.16632,-0.15582,0.16226,41.4877,-89.5062,183.01,19,1,21.21,981.41,274.269,1,0,0,
1445640,-0.03294,-0.991128,-0.008052,4.27,-0.28,4.2,-0.1708,-0.1554,0.16632,41.4877,-89.5062,183.01,19,1,21.22,981.57,272.875,1,0,0,
1445650,-0.03294,-0.991128,-0.008052,4.27,-0.28,4.2,-0.1708,-0.1554,0.16632,41.4877,-89.5062,183.01,19,1,21.22,981.57,272.875,1,0,0,
1445660,-0.03294,-0.991128,-0.008052,4.27,-0.28,4.2,-0.1708,-0.1554,0.16632,41.4877,-89.5062,183.01,19,1,21.22,981.57,272.875,1,0,0,
1445670,-0.03294,-1.01236,-0.013908,4.62,-0.21,3.78,-0.1708,-0.1561,0.15848,41.4877,-89.5062,183.01,19,1,21.21,981.46,273.831,1,0,0,
1445680,-0.03294,-1.01236,-0.013908,4.62,-0.21,3.78,-0.1708,-0.1561,0.15848,41.4877,-89.5062,183.01,19,1,21.21,981.46,273.831,1,0,0,
1445690,-0.049044,-1.02334,-0.010248,4.48,-0.42,3.85,-0.16716,-0.15176,0.16226,41.4877,-89.5062,183.01,19,1,21.22,981.48,273.665,1,0,0,
1445700,-0.049044,-1.02334,-0.010248,4.48,-0.42,3.85,-0.16716,-0.15176,0.16226,41.4877,-89.5062,182.994,19,1,21.22,981.48,273.665,1,0,0,
1445710,-0.049044,-1.02334,-0.010248,4.48,-0.42,3.85,-0.16716,-0.15176,0.16226,41.4877,-89.5062,182.994,19,1,21.22,981.48,273.665,1,0,0,
1445720,-0.034404,-1.0087,-0.033672,3.92,0.07,3.99,-0.17374,-0.15316,0.15414,41.4877,-89.5062,182.994,19,1,21.2,981.49,273.558,1,0,0,
1445730,-0.034404,-1.0087,-0.033672,3.92,0.07,3.99,-0.17374,-0.15316,0.15414,41.4877,-89.5062,182.994,19,1,21.2,981.49,273.558,1,0,0,
1445740,-0.034404,-1.0087,-0.033672,3.92,0.07,3.99,-0.17374,-0.15316,0.15414,41.4877,-89.5062,182.994,19,1,21.2,981.49,273.558,1,0,0,
1445750,-0.043188,-1.0087,-0.00732,4.2,0.21,3.78,-0.16772,-0.15526,0.17164,41.4877,-89.5062,182.994,19,1,21.2,981.43,274.084,1,0,0,
1445760,-0.043188,-1.0087,-0.00732,4.2,0.21,3.78,-0.16772,-0.15526,0.17164,41.4877,-89.5062,182.994,19,1,21.2,981.43,274.084,1,0,0,
1445770,-0.038064,-1.0087,-0.019032,4.2,-0.56,3.85,-0.17262,-0.15736,0.1652,41.4877,-89.5062,182.994,19,1,21.22,981.48,273.665,1,0,0,
1445780,-0.038064,-1.0087,-0.019032,4.2,-0.56,3.85,-0.17262,-0.15736,0.1652,41.4877,-89.5062,182.994,19,1,21.22,981.48,273.665,1,0,0,
1445790,-0.038064,-1.0087,-0.019032,4.2,-0.56,3.85,-0.17262,-0.15736,0.1652,41.4877,-89.5062,182.994,19,1,21.22,981.48,273.665,1,0,0,
1445800,-0.046848,-1.02334,-0.022692,4.2,-0.14,3.85,-0.16954,-0.15666,0.1652,41.4877,-89.5062,183.03,19,1,21.2,981.52,273.295,1,0,0,
1445810,-0.046848,-1.02334,-0.022692,4.2,-0.14,3.85,-0.16954,-0.15666,0.1652,41.4877,-89.5062,183.03,19,1,21.2,981.52,273.295,1,0,0,
1445820,-0.046848,-1.02334,-0.022692,4.2,-0.14,3.85,-0.16954,-0.15666,0.1652,41.4877,-89.5062,183.03,19,1,21.2,981.52,273.295,1,0,0,
1445830,0.679296,-19.7677,-4.68846,-4.69,7.84,22.89,-0.16394,-0.15666,0.15918,41.4877,-89.5062,183.03,19,1,21.19,981.44,273.987,2,0,0,
1445840,0.679296,-19.7677,-4.68846,-4.69,7.84,22.89,-0.16394,-0.15666,0.15918,41.4877,-89.5062,183.03,19,1,21.19,981.44,273.987,2,0,0,
1445850,0.549732,-23.9832,0.58194,23.24,-12.46,21.56,-0.23898,-0.08596,0.16562,41.4877,-89.5062,183.03,19,1,21.2,979.45,291.474,2,0,0,
1445860,0.549732,-23.9832,0.58194,23.24,-12.46,21.56,-0.23898,-0.08596,0.16562,41.4877,-89.5062,183.03,19,1,21.2,979.45,291.474,2,0,0,
1445870,0.549732,-23.9832,0.58194,23.24,-12.46,21.56,-0.23898,-0.08596,0.16562,41.4877,-89.5062,183.03,19,1,21.2,979.45,291.474,2,0,0,
1445880,-1.37909,-20.8195,-1.68872,17.15,4.13,9.59,-0.22806,-0.09352,0.16646,41.4877,-89.5062,183.03,19,1,21.19,980.36,283.468,2,0,0.00423647,
1445890,-1.37909,-20.8195,-1.68872,17.15,4.13,9.59,-0.22806,-0.09352,0.16646,41.4877,-89.5062,183.03,19,1,21.19,980.36,283.468,2,0,0.00423647,
1445900,-1.37909,-20.8195,-1.68872,17.15,4.13,9.59,-0.22806,-0.09352,0.16646,41.4877,-89.5062,183.03,19,1,21.19,980.36,283.468,2,0,0.00423647,
1445910,3.87521,-23.9832,3.98208,0.84,-34.09,-10.99,-0.2205,-0.0952,0.18088,41.4877,-89.5062,183.03,19,1,21.18,980.92,278.542,2,0,0,
1445920,3.87521,-23.9832,3.98208,0.84,-34.09,-10.99,-0.2205,-0.0952,0.18088,41.4877,-89.5062,183.03,19,1,21.18,980.92,278.542,2,0,0,
1445930,3.87521,-23.9832,3.98208,0.84,-34.09,-10.99,-0.2205,-0.0952,0.18088,41.4877,-89.5062,183.03,19,1,21.18,980.92,278.542,2,0,0,
1445940,3.87521,-23.9832,3.98208,0.84,-34.09,-10.99,-0.2205,-0.0952,0.18088,41.4877,-89.5062,183.03,19,1,21.18,980.92,278.542,2,0,0,
1445950,-0.86742,-23.9832,-1.60088,2.87,-124.53,13.02,-0.21616,-0.09618,0.1869,41.4877,-89.5062,183.03,19,1,21.18,980.62,281.175,2,0,0.0292306,
1445960,-0.86742,-23.9832,-1.60088,2.87,-124.53,13.02,-0.21616,-0.09618,0.1869,41.4877,-89.5062,183.03,19,1,21.18,980.62,281.175,2,0,0.0292306,
1445970,2.12134,-23.9832,-8.6581,-3.22,-122.15,14.14,-0.19922,-0.09786,0.1953,41.4877,-89.5062,183.03,19,1,21.18,981.19,276.172,2,0,0.0178451,
1445980,2.12134,-23.9832,-8.6581,-3.22,-122.15,14.14,-0.19922,-0.09786,0.1953,41.4877,-89.5062,183.03,19,1,21.18,981.19,276.172,2,0,0.0178451,
1445990,2.12134,-23.9832,-8.6581,-3.22,-122.15,14.14,-0.19922,-0.09786,0.1953,41.4877,-89.5062,183.03,19,1,21.18,981.19,276.172,2,0,0.0178451,
1446000,-0.00366,-23.9832,1.16242,-3.57,-89.39,13.23,-0.19012,-0.10598,0.20944,41.4877,-89.5062,183.03,19,1,21.19,981.48,273.637,2,0,0.00938717,
1446010,-0.00366,-23.9832,1.16242,-3.57,-89.39,13.23,-0.19012,-0.10598,0.20944,41.4877,-89.5062,183.03,19,1,21.19,981.48,273.637,2,0,0.00938717,
1446020,-0.00366,-23.9832,1.16242,-3.57,-89.39,13.23,-0.19012,-0.10598,0.20944,41.4877,-89.5062,183.03,19,1,21.19,981.48,273.637,2,0,0.00938717,
1446030,0.90036,-23.9832,0.461892,1.19,-102.9,11.48,-0.1876,-0.09884,0.20216,41.4877,-89.5062,183.044,19,1,21.18,981.48,273.627,2,0,0.0170123,
1446040,0.90036,-23.9832,0.461892,1.19,-102.9,11.48,-0.1876,-0.09884,0.20216,41.4877,-89.5062,183.044,19,1,21.18,981.48,273.627,2,0,0.0170123,
1446050,3.4587,-23.9832,2.18575,0.98,28.49,15.47,-0.18256,-0.09058,0.19586,41.4877,-89.5062,183.044,19,1,21.18,980.28,284.161,2,0.0198014,0,
1446060,3.4587,-23.9832,2.18575,0.98,28.49,15.47,-0.18256,-0.09058,0.19586,41.4877,-89.5062,183.044,19,1,21.18,980.28,284.161,2,0.0198014,0,
1446070,3.4587,-23.9832,2.18575,0.98,28.49,15.47,-0.18256,-0.09058,0.19586,41.4877,-89.5062,183.044,19,1,21.18,980.28,284.161,2,0.0198014,0,
1446080,-1.22464,-23.9832,-1.50646,-10.36,4.2,32.27,-0.18326,-0.09646,0.1995,41.4877,-89.5062,183.044,19,1,21.18,981.12,276.786,2,0.00427264,0,
1446090,-1.22464,-23.9832,-1.50646,-10.36,4.2,32.27,-0.18326,-0.09646,0.1995,41.4877,-89.5062,183.044,19,1,21.18,981.12,276.786,2,0.00427264,0,
1446100,-0.952332,-23.9832,1.34102,-0.14,3.08,27.58,-0.17332,-0.09086,0.19012,41.4877,-89.5062,183.044,19,1,21.2,980.88,278.911,2,0,0,
1446110,-0.952332,-23.9832,1.34102,-0.14,3.08,27.58,-0.17332,-0.09086,0.19012,41.4877,-89.5062,183.03,19,1,21.2,980.88,278.911,2,0,0,
1446120,-0.952332,-23.9832,1.34102,-0.14,3.08,27.58,-0.17332,-0.09086,0.19012,41.4877,-89.5062,183.03,19,1,21.2,980.88,278.911,2,0,0,
1446130,-0.408456,-23.9832,-0.6222,0.84,11.34,28.56,-0.17136,-0.09548,0.19222,41.4877,-89.5062,183.03,19,1,21.18,980.57,281.614,3,0,0,
1446140,-0.408456,-23.9832,-0.6222,0.84,11.34,28.56,-0.17136,-0.09548,0.19222,41.4877,-89.5062,183.03,19,1,21.18,980.57,281.614,3,0.00286388,0,
1446150,-0.408456,-23.9832,-0.6222,0.84,11.34,28.56,-0.17136,-0.09548,0.19222,41.4877,-89.5062,183.03,19,1,21.18,980.57,281.614,3,0.00286388,0,
1446160,-0.497028,-23.9832,0.669048,1.75,4.41,30.94,-0.1673,-0.09702,0.1967,41.4877,-89.5062,183.03,19,1,21.19,980.19,284.961,3,0,0,
1446170,-0.497028,-23.9832,0.669048,1.75,4.41,30.94,-0.1673,-0.09702,0.1967,41.4877,-89.5062,183.03,19,1,21.19,980.19,284.961,3,0,0,
1446180,-0.619272,-23.9832,0.065148,-2.03,7.63,30.59,-0.16114,-0.08806,0.19222,41.4877,-89.5062,183.03,19,1,21.17,980.19,284.942,3,0,0,
1446190,-0.619272,-23.9832,0.065148,-2.03,7.63,30.59,-0.16114,-0.08806,0.19222,41.4877,-89.5062,183.03,19,1,21.17,980.19,284.942,3,0,0,
1446200,-0.619272,-23.9832,0.065148,-2.03,7.63,30.59,-0.16114,-0.08806,0.19222,41.4877,-89.5062,183.03,19,1,21.17,980.19,284.942,3,0,0,
1446210,-0.619272,-23.9832,0.065148,-2.03,7.63,30.59,-0.16114,-0.08806,0.19222,41.4877,-89.5062,183.03,19,1,21.17,980.19,284.942,3,0,0,
1446220,-0.619272,-23.9832,0.065148,-2.03,7.63,30.59,-0.16114,-0.08806,0.19222,41.4877,-89.5062,183.03,19,1,21.17,980.19,284.942,3,0,0,
1446230,-0.215208,-23.9832,-0.538752,2.52,9.59,28,-0.1512,-0.08694,0.1848,41.4877,-89.5062,183.03,19,1,21.17,980.54,281.868,3,0,0,
1446240,-0.215208,-23.9832,-0.538752,2.52,9.59,28,-0.1512,-0.08694,0.1848,41.4877,-89.5062,183.03,19,1,21.17,980.54,281.868,3,0,0,
1446250,-0.240828,-23.9832,-0.579012,4.27,8.05,25.69,-0.14756,-0.08974,0.18648,41.4877,-89.5062,183.03,19,1,21.18,980.4,283.107,3,0,0,
1446260,-0.240828,-23.9832,-0.579012,4.27,8.05,25.69,-0.14756,-0.08974,0.18648,41.4877,-89.5062,183.03,19,1,21.18,980.4,283.107,3,0,0,
1446270,-0.240828,-23.9832,-0.579012,4.27,8.05,25.69,-0.14756,-0.08974,0.18648,41.4877,-89.5062,183.03,19,1,21.18,980.4,283.107,3,0,0,
1446280,-0.730536,-23.9832,-0.502152,3.57,5.53,25.55,-0.1435,-0.08512,0.19306,41.4877,-89.5062,183.03,19,1,21.16,980.19,284.932,3,0,0,
1446290,-0.730536,-23.9832,-0.502152,3.57,5.53,25.55,-0.1435,-0.08512,0.19306,41.4877,-89.5062,183.03,19,1,21.16,980.19,284.932,3,0,0,
1446300,-0.879864,-23.9832,-0.24156,6.44,9.8,22.68,-0.14196,-0.08456,0.19488,41.4877,-89.5062,183,17,1,21.19,980.14,285.401,3,0,0,
1446310,-0.879864,-23.9832,-0.24156,6.44,9.8,22.68,-0.14196,-0.08456,0.19488,41.4877,-89.5062,183,17,1,21.19,980.14,285.401,3,0,0,
1446320,-0.879864,-23.9832,-0.24156,6.44,9.8,22.68,-0.14196,-0.08456,0.19488,41.4877,-89.5062,183,17,1,21.19,980.14,285.401,3,0,0,
1446330,-1.03066,-23.9832,-0.2745,5.53,7.84,15.47,-0.13958,-0.08316,0.19376,41.4877,-89.5062,183,17,1,21.18,980.02,286.445,3,0,0,
1446340,-1.03066,-23.9832,-0.2745,5.53,7.84,15.47,-0.13958,-0.08316,0.19376,41.4877,-89.5062,183,17,1,21.18,980.02,286.445,3,0,0,
1446350,-1.03066,-23.9832,-0.2745,5.53,7.84,15.47,-0.13958,-0.08316,0.19376,41.4877,-89.5062,183,17,1,21.18,980.02,286.445,3,0,0,
1446360,-1.30223,-23.9832,-0.48678,4.34,8.96,11.69,-0.13328,-0.08232,0.19572,41.4877,-89.5062,183,17,1,21.18,980.41,283.019,3,0,0,
1446370,-1.30223,-23.9832,-0.48678,4.34,8.96,11.69,-0.13328,-0.08232,0.19572,41.4877,-89.5062,183,17,1,21.18,980.41,283.019,3,0,0,
1446380,-0.887184,-23.9832,0.013908,3.78,13.16,4.76,-0.13342,-0.07994,0.19572,41.4877,-89.5062,183.003,17,1,21.19,980.25,284.434,3,0,0,
1446390,-0.887184,-23.9832,0.013908,3.78,13.16,4.76,-0.13342,-0.07994,0.19572,41.4877,-89.5062,183.003,17,1,21.19,980.25,284.434,3,0,0,
1446400,-0.887184,-23.9832,0.013908,3.78,13.16,4.76,-0.13342,-0.07994,0.19572,41.4877,-89.5062,183.003,17,1,21.19,980.25,284.434,3,0,0,
1446410,-0.887184,-23.9832,0.013908,3.78,13.16,4.76,-0.13342,-0.07994,0.19572,41.4877,-89.5062,183.003,17,1,21.19,980.25,284.434,3,0,0,
1446420,-1.51817,-23.9832,-0.34404,6.02,13.37,-2.8,-0.13412,-0.08232,0.19474,41.4877,-89.5062,183.003,17,1,21.19,980.34,283.644,3,0,0,
1446430,-1.51817,-23.9832,-0.34404,6.02,13.37,-2.8,-0.13412,-0.08232,0.19474,41.4877,-89.5062,183.003,17,1,21.19,980.34,283.644,3,0,0,
1446440,-1.22683,-23.9832,-0.521916,4.27,24.92,-8.89,-0.13762,-0.0805,0.19628,41.4877,-89.5062,183.003,17,1,21.17,980.45,282.659,3,0.00528521,0,
1446450,-1.22683,-23.9832,-0.521916,4.27,24.92,-8.89,-0.13762,-0.0805,0.19628,41.4877,-89.5062,183.003,17,1,21.17,980.45,282.659,3,0.00528521,0,
1446460,-1.22683,-23.9832,-0.521916,4.27,24.92,-8.89,-0.13762,-0.0805,0.19628,41.4877,-89.5062,183.003,17,1,21.17,980.45,282.659,3,0.00528521,0,
1446470,-0.811056,-23.9832,-0.42822,2.8,28.84,-13.44,-0.13888,-0.08036,0.18984,41.4877,-89.5062,183.003,17,1,21.18,980.86,279.068,3,0.00373781,0,
1446480,-0.811056,-23.9832,-0.42822,2.8,28.84,-13.44,-0.13888,-0.08036,0.18984,41.4877,-89.5062,183.003,17,1,21.18,980.86,279.068,3,0.00373781,0,
1446490,-0.588528,-23.9832,-0.35502,0,29.4,-18.9,-0.15428,-0.07672,0.19194,41.4877,-89.5062,182.972,15,1,21.18,980.68,280.648,3,0.00498327,0,
1446500,-0.588528,-23.9832,-0.35502,0,29.4,-18.9,-0.15428,-0.07672,0.19194,41.4877,-89.5062,182.972,15,1,21.18,980.68,280.648,3,0.00498327,0,
1446510,-0.588528,-23.9832,-0.35502,0,29.4,-18.9,-0.15428,-0.07672,0.19194,41.4877,-89.5062,182.972,15,1,21.18,980.68,280.648,3,0.00498327,0,
1446520,-0.726144,-23.9832,-0.712236,0.42,25.69,-22.47,-0.15442,-0.07672,0.18998,41.4877,-89.5062,182.972,15,1,21.19,980.84,279.253,3,0.00447539,0,
1446530,-0.726144,-23.9832,-0.712236,0.42,25.69,-22.47,-0.15442,-0.07672,0.18998,41.4877,-89.5062,182.972,15,1,21.19,980.84,279.253,3,0.00447539,0,
1446540,-0.726144,-23.9832,-0.712236,0.42,25.69,-22.47,-0.15442,-0.07672,0.18998,41.4877,-89.5062,182.972,15,1,21.19,980.84,279.253,3,0.00447539,0,
1446550,-0.262056,-23.9832,-0.904752,0.56,28,-25.69,-0.16254,-0.08064,0.18956,41.4877,-89.5062,182.972,15,1,21.16,980.92,278.523,3,0.00342083,0,
1446560,-0.262056,-23.9832,-0.904752,0.56,28,-25.69,-0.16254,-0.08064,0.18956,41.4877,-89.5062,182.972,15,1,21.16,980.92,278.523,3,0.00342083,0,
1446570,-0.262056,-23.9832,-0.904752,0.56,28,-25.69,-0.16254,-0.08064,0.18956,41.4877,-89.5062,182.972,15,1,21.16,980.92,278.523,3,0.00342083,0,
1446580,-0.305976,-23.9832,-0.404796,2.52,27.86,-24.01,-0.1722,-0.07854,0.18242,41.4877,-89.5062,182.972,15,1,21.19,980.84,279.253,3,0.00416307,0,
1446590,-0.305976,-23.9832,-0.404796,2.52,27.86,-24.01,-0.1722,-0.07854,0.18242,41.4877,-89.5062,182.972,15,1,21.19,980.84,279.253,3,0.00416307,0,
1446600,0.295728,-23.9832,-0.546804,3.99,30.73,-21.7,-0.18802,-0.07952,0.17738,41.4877,-89.5062,182.972,15,1,21.15,981.41,274.214,3,0.00416307,0,
1446610,0.295728,-23.9832,-0.546804,3.99,30.73,-21.7,-0.18802,-0.07952,0.17738,41.4877,-89.5062,182.972,15,1,21.15,981.41,274.214,3,0.00416307,0,
1446620,0.295728,-23.9832,-0.546804,3.99,30.73,-21.7,-0.18802,-0.07952,0.17738,41.4877,-89.5062,182.972,15,1,21.15,981.41,274.214,3,0.00514486,0,
1446630,0.295728,-23.9832,-0.546804,3.99,30.73,-21.7,-0.18802,-0.07952,0.17738,41.4877,-89.5062,182.972,15,1,21.15,981.41,274.214,3,0.00514486,0,
1446640,0.2013,-23.9832,-0.499956,-1.4,32.13,-14.7,-0.18886,-0.07448,0.18004,41.4877,-89.5062,182.972,15,1,21.17,981.87,270.197,3,0.0049835,0,
1446650,0.2013,-23.9832,-0.499956,-1.4,32.13,-14.7,-0.18886,-0.07448,0.18004,41.4877,-89.5062,182.972,15,1,21.17,981.87,270.197,3,0.0049835,0,
1446660,0.2013,-23.9832,-0.499956,-1.4,32.13,-14.7,-0.18886,-0.07448,0.18004,41.4877,-89.5062,182.972,15,1,21.17,981.87,270.197,3,0.0049835,0,
1446670,0.32574,-23.9832,-0.61488,3.08,33.53,-8.12,-0.1932,-0.0798,0.17654,41.4877,-89.5062,182.972,15,1,21.16,982.1,268.172,3,0.00539364,0,
1446680,0.32574,-23.9832,-0.61488,3.08,33.53,-8.12,-0.1932,-0.0798,0.17654,41.4877,-89.5062,182.972,15,1,21.16,982.1,268.172,3,0.00539364,0,
1446690,0.32574,-23.9832,-0.61488,3.08,33.53,-8.12,-0.1932,-0.0798,0.17654,41.4877,-89.5062,182.972,15,1,21.17,982.57,264.061,3,0.00539364,0,
1446700,0.392352,-23.9832,-0.597312,8.75,33.6,-0.98,-0.19936,-0.0805,0.17472,41.4877,-89.5062,182.972,15,1,21.17,982.57,264.061,3,0.00503045,0,
1446710,0.392352,-23.9832,-0.597312,8.75,33.6,-0.98,-0.19936,-0.0805,0.17472,41.4877,-89.5062,182.972,15,1,21.17,982.57,264.061,3,0.00503045,0,
1446720,0.09516,-23.9832,-0.5124,9.66,39.06,5.95,-0.20412,-0.08372,0.1757,41.4877,-89.5062,182.961,15,1,21.17,982.82,261.871,3,0.00524925,0,
1446730,0.09516,-23.9832,-0.5124,9.66,39.06,5.95,-0.20412,-0.08372,0.1757,41.4877,-89.5062,182.961,15,1,21.17,982.82,261.871,3,0.00524925,0,
1446740,0.09516,-23.9832,-0.5124,9.66,39.06,5.95,-0.20412,-0.08372,0.1757,41.4877,-89.5062,182.961,15,1,21.17,982.82,261.871,3,0.00524925,0,
1446750,0.199836,-23.9832,-0.357216,8.4,38.01,11.34,-0.20384,-0.0777,0.17864,41.4877,-89.5062,182.961,15,1,21.19,982.93,260.925,3,0.00669725,0,
1446760,0.199836,-23.9832,-0.357216,8.4,38.01,11.34,-0.20384,-0.0777,0.17864,41.4877,-89.5062,182.961,15,1,21.19,982.93,260.925,3,0.00669725,0,
1446770,0.133956,-23.9832,-0.515328,12.81,35.21,15.19,-0.20048,-0.07952,0.17514,41.4877,-89.5062,182.961,15,1,21.18,982.96,260.654,3,0.00558041,0,
1446780,0.133956,-23.9832,-0.515328,12.81,35.21,15.19,-0.20048,-0.07952,0.17514,41.4877,-89.5062,182.961,15,1,21.18,982.96,260.654,3,0.00558041,0,
1446790,0.133956,-23.9832,-0.515328,12.81,35.21,15.19,-0.20048,-0.07952,0.17514,41.4877,-89.5062,182.961,15,1,21.18,982.96,260.654,3,0.00558041,0,
1446800,-0.213744,-23.9832,-0.030744,10.43,45.64,15.82,-0.203,-0.08512,0.17094,41.4877,-89.5062,182.945,14,1,21.17,983.11,259.33,3,0.00495639,0,
1446810,-0.213744,-23.9832,-0.030744,10.43,45.64,15.82,-0.203,-0.08512,0.17094,41.4877,-89.5062,182.945,14,1,21.17,983.11,259.33,3,0.00495639,0,
1446820,-0.213744,-23.9832,-0.030744,10.43,45.64,15.82,-0.203,-0.08512,0.17094,41.4877,-89.5062,182.945,14,1,21.17,983.11,259.33,3,0.00495639,0,
1446830,-0.733464,-23.9832,-0.147132,3.57,54.04,16.87,-0.2009,-0.08288,0.17416,41.4877,-89.5062,182.945,14,1,21.18,983.17,258.814,3,0.00826458,0,
1446840,-0.733464,-23.9832,-0.147132,3.57,54.04,16.87,-0.2009,-0.08288,0.17416,41.4877,-89.5062,182.945,14,1,21.18,983.17,258.814,3,0.00826458,0,
1446850,-0.765672,-23.9832,-0.207156,7,56.35,13.23,-0.19964,-0.08274,0.16814,41.4877,-89.5062,182.945,14,1,21.2,983.26,258.044,3,0.00928798,0,
1446860,-0.765672,-23.9832,-0.207156,7,56.35,13.23,-0.19964,-0.08274,0.16814,41.4877,-89.5062,182.945,14,1,21.2,983.26,258.044,3,0.00928798,0,
1446870,-0.765672,-23.9832,-0.207156,7,56.35,13.23,-0.19964,-0.08274,0.16814,41.4877,-89.5062,182.945,14,1,21.2,983.26,258.044,3,0.00928798,0,
1446880,-0.833016,-23.9832,-0.635376,-5.39,73.99,1.75,-0.19824,-0.08918,0.16254,41.4877,-89.5062,182.945,14,1,21.14,983.42,256.59,3,0.00872421,0,
1446890,-0.833016,-23.9832,-0.635376,-5.39,73.99,1.75,-0.19824,-0.08918,0.16254,41.4877,-89.5062,182.945,14,1,21.14,983.42,256.59,3,0.00872421,0,
1446900,-0.833016,-23.9832,-0.635376,-5.39,73.99,1.75,-0.19824,-0.08918,0.16254,41.4877,-89.5062,182.945,14,1,21.14,983.42,256.59,3,0.00872421,0,
1446910,-0.833016,-23.9832,-0.635376,-5.39,73.99,1.75,-0.19824,-0.08918,0.16254,41.4877,-89.5062,182.945,14,1,21.14,983.42,256.59,3,0.00872421,0,
1446920,-0.849852,-23.9832,-0.203496,1.05,75.11,-3.85,-0.20048,-0.08806,0.15484,41.4877,-89.5062,182.945,14,1,21.16,983.84,252.931,3,0.013359,0,
1446930,-0.849852,-23.9832,-0.203496,1.05,75.11,-3.85,-0.20048,-0.08806,0.15484,41.4877,-89.5062,182.945,14,1,21.16,983.84,252.931,3,0.0114,0,
1446940,-0.849852,-23.9832,-0.203496,1.05,75.11,-3.85,-0.20048,-0.08806,0.15484,41.4877,-89.5062,182.945,14,1,21.16,983.84,252.931,3,0.0114,0,
1446950,-1.12801,-23.9832,-0.338184,8.33,101.01,-7,-0.20482,-0.08624,0.15232,41.4877,-89.5062,182.945,14,1,21.15,984.21,249.686,3,0.0183764,0,
1446960,-1.12801,-23.9832,-0.338184,8.33,101.01,-7,-0.20482,-0.08624,0.15232,41.4877,-89.5062,182.945,14,1,21.15,984.21,249.686,3,0.0183764,0,
1446970,-0.12078,-23.9832,0.561444,-0.91,100.24,-11.62,-0.21014,-0.08526,0.13888,41.4877,-89.5062,182.945,14,1,21.16,984.94,243.31,3,0.0149499,0,
1446980,-0.12078,-23.9832,0.561444,-0.91,100.24,-11.62,-0.21014,-0.08526,0.13888,41.4877,-89.5062,182.945,14,1,21.16,984.94,243.31,3,0.0149499,0,
1446990,-0.12078,-23.9832,0.561444,-0.91,100.24,-11.62,-0.21014,-0.08526,0.13888,41.4877,-89.5062,182.945,14,1,21.16,984.94,243.31,3,0.0149499,0,
1447000,0.240828,-23.9832,-0.060756,-22.89,107.66,-7.91,-0.2184,-0.09142,0.13888,41.4877,-89.5062,182.936,14,1,21.17,985.45,238.862,3,0.0172188,0,
1447010,0.240828,-23.9832,-0.060756,-22.89,107.66,-7.91,-0.2184,-0.09142,0.13888,41.4877,-89.5062,182.936,14,1,21.17,985.45,238.862,3,0.0172188,0,
1447020,0.240828,-23.9832,-0.060756,-22.89,107.66,-7.91,-0.2184,-0.09142,0.13888,41.4877,-89.5062,182.936,14,1,21.17,985.45,238.862,3,0.0172188,0,
1447030,0.330132,-23.9832,-1.10605,-0.84,94.29,-3.71,-0.2198,-0.09184,0.13216,41.4877,-89.5062,182.936,14,1,21.17,986.19,232.398,3,0.0161536,0,
1447040,0.330132,-23.9832,-1.10605,-0.84,94.29,-3.71,-0.2198,-0.09184,0.13216,41.4877,-89.5062,182.936,14,1,21.17,986.19,232.398,3,0.0161536,0,
1447050,0.609756,-23.9832,1.3154,-9.03,104.51,0.07,-0.22484,-0.0938,0.1246,41.4877,-89.5062,182.936,14,1,21.16,986.51,229.597,3,0.0125887,0,
1447060,0.609756,-23.9832,1.3154,-9.03,104.51,0.07,-0.22484,-0.0938,0.1246,41.4877,-89.5062,182.936,14,1,21.16,986.51,229.597,3,0.0125887,0,
1447070,0.609756,-23.9832,1.3154,-9.03,104.51,0.07,-0.22484,-0.0938,0.1246,41.4877,-89.5062,182.936,14,1,21.16,986.51,229.597,3,0.0125887,0,
1447080,-0.229848,-22.7008,-0.101016,21.98,74.62,8.96,-0.22456,-0.10066,0.11886,41.4877,-89.5062,182.936,14,1,21.15,986.99,225.401,3,0.0170743,0,
1447090,-0.229848,-22.7008,-0.101016,21.98,74.62,8.96,-0.22456,-0.10066,0.11886,41.4877,-89.5062,182.936,14,1,21.15,986.99,225.401,3,0.0170743,0,
1447100,-0.229848,-22.7008,-0.101016,21.98,74.62,8.96,-0.22456,-0.10066,0.11886,41.4877,-89.5062,182.936,14,1,21.15,986.99,225.401,3,0.0170743,0,
1447110,-0.229848,-22.7008,-0.101016,21.98,74.62,8.96,-0.22456,-0.10066,0.11886,41.4877,-89.5062,182.936,14,1,21.15,986.99,225.401,3,0.0170743,0,
1447120,0.516792,-22.0142,-0.254736,31.5,88.48,12.25,-0.21896,-0.10276,0.11004,41.4877,-89.5062,182.936,14,1,21.15,986.82,226.884,3,0.00771157,0,
1447130,0.516792,-22.0142,-0.254736,31.5,88.48,12.25,-0.21896,-0.10276,0.11004,41.4877,-89.5062,182.936,14,1,21.15,986.82,226.884,3,0.0150951,0,
1447140,0.516792,-22.0142,-0.254736,31.5,88.48,12.25,-0.21896,-0.10276,0.11004,41.4877,-89.5062,182.936,14,1,21.15,986.82,226.884,3,0.0150951,0,
1447150,-0.477264,-20.0941,0.152988,14.56,106.75,10.08,-0.22246,-0.1036,0.10612,41.4877,-89.5062,182.936,14,1,21.15,986.77,227.321,3,0.0183506,0,
1447160,-0.477264,-20.0941,0.152988,14.56,106.75,10.08,-0.22246,-0.1036,0.10612,41.4877,-89.5062,182.936,14,1,21.15,986.77,227.321,3,0.0183506,0,
1447170,-0.176412,-18.7085,0.171288,27.23,89.81,6.58,-0.21952,-0.10346,0.1036,41.4877,-89.5062,182.936,14,1,21.15,986.62,228.629,3,0.0115021,0,
1447180,-0.176412,-18.7085,0.171288,27.23,89.81,6.58,-0.21952,-0.10346,0.1036,41.4877,-89.5062,182.936,14,1,21.15,986.62,228.629,3,0.0115021,0,
1447190,-0.176412,-18.7085,0.171288,27.23,89.81,6.58,-0.21952,-0.10346,0.1036,41.4877,-89.5062,182.936,14,1,21.15,986.62,228.629,3,0.0115021,0,
1447200,-0.699792,-11.1784,0.69906,-51.8,141.05,1.26,-0.21252,-0.11312,0.0938,41.4877,-89.5062,182.923,13,1,21.16,986.55,229.248,3,0.0136788,0,
1447210,-0.699792,-11.1784,0.69906,-51.8,141.05,1.26,-0.21252,-0.11312,0.0938,41.4877,-89.5062,182.923,13,1,21.16,986.55,229.248,3,0.0136788,0,
1447220,-0.699792,-11.1784,0.69906,-51.8,141.05,1.26,-0.21252,-0.11312,0.0938,41.4877,-89.5062,182.923,13,1,21.16,986.55,229.248,3,0.0136788,0,
1447230,0.163968,-3.29034,0.088572,-16.59,135.03,-0.35,-0.19264,-0.13314,0.0875,41.4877,-89.5062,182.923,13,1,21.17,986.47,229.954,3,0.0273434,0,
1447240,0.163968,-3.29034,0.088572,-16.59,135.03,-0.35,-0.19264,-0.13314,0.0875,41.4877,-89.5062,182.923,13,1,21.17,986.47,229.954,3,0.0273434,0,
1447250,-0.162504,0.803004,-0.583404,-3.85,168.07,-6.3,-0.17794,-0.15442,0.07294,41.4877,-89.5062,182.923,13,1,21.16,986.07,233.438,3,0.0195606,0,
1447260,-0.162504,0.803004,-0.583404,-3.85,168.07,-6.3,-0.17794,-0.15442,0.07294,41.4877,-89.5062,182.923,13,1,21.16,986.07,233.438,3,0.0195606,0,
1447270,-0.162504,0.803004,-0.583404,-3.85,168.07,-6.3,-0.17794,-0.15442,0.07294,41.4877,-89.5062,182.923,13,1,21.16,986.07,233.438,3,0.0195606,0,
1447280,0.032208,1.80877,-0.304512,-3.64,167.79,-4.48,-0.17276,-0.1645,0.05348,41.4877,-89.5062,182.923,13,1,21.15,984.13,250.385,3,0.0292743,0,
1447290,0.032208,1.80877,-0.304512,-3.64,167.79,-4.48,-0.17276,-0.1645,0.05348,41.4877,-89.5062,182.923,13,1,21.15,984.13,250.385,3,0.0292743,0,
1447300,0.032208,1.80877,-0.304512,-3.64,167.79,-4.48,-0.17276,-0.1645,0.05348,41.4877,-89.5062,182.923,13,1,21.15,984.13,250.385,3,0.0292743,0,
1447310,0.032208,1.80877,-0.304512,-3.64,167.79,-4.48,-0.17276,-0.1645,0.05348,41.4877,-89.5062,182.923,13,1,21.15,984.13,250.385,3,0.0292743,0,
1447320,0.330864,2.37241,-1.02773,-2.03,157.85,-1.4,-0.1792,-0.1617,0.04424,41.4877,-89.5062,182.923,13,1,21.15,984.83,244.264,3,0.0251457,0,
1447330,0.330864,2.37241,-1.02773,-2.03,157.85,-1.4,-0.1792,-0.1617,0.04424,41.4877,-89.5062,182.923,13,1,21.15,984.83,244.264,3,0.0225284,0,
1447340,0.330864,2.37241,-1.02773,-2.03,157.85,-1.4,-0.1792,-0.1617,0.04424,41.4877,-89.5062,182.923,13,1,21.15,984.83,244.264,3,0.0225284,0,
1447350,1.24586,1.85123,0.006588,12.95,151.97,1.68,-0.17906,-0.16324,0.03626,41.4877,-89.5062,182.923,13,1,21.18,983.72,253.998,3,0.0221207,0,
1447360,1.24586,1.85123,0.006588,12.95,151.97,1.68,-0.17906,-0.16324,0.03626,41.4877,-89.5062,182.923,13,1,21.18,983.72,253.998,3,0.0221207,0,
1447370,0.185928,2.22821,0.042456,19.67,150.22,4.55,-0.17738,-0.16478,0.0154,41.4877,-89.5062,182.923,13,1,21.17,982.77,262.309,3,0.0225406,0,
1447380,0.185928,2.22821,0.042456,19.67,150.22,4.55,-0.17738,-0.16478,0.0154,41.4877,-89.5062,182.923,13,1,21.17,982.77,262.309,3,0.0225406,0,
1447390,0.185928,2.22821,0.042456,19.67,150.22,4.55,-0.17738,-0.16478,0.0154,41.4877,-89.5062,182.923,13,1,21.17,982.77,262.309,3,0.0225406,0,
1447400,0.772992,2.16599,-0.017568,-2.17,165.27,4.97,-0.16884,-0.16422,0.00826,41.4877,-89.5062,182.902,13,1,21.17,982.02,268.882,3,0.0227454,0,
1447410,0.772992,2.16599,-0.017568,-2.17,165.27,4.97,-0.16884,-0.16422,0.00826,41.4877,-89.5062,182.902,13,1,21.17,982.02,268.882,3,0.0227454,0,
1447420,0.914268,2.52174,0.497028,-10.5,124.67,5.53,-0.16408,-0.1666,0.00658,41.4877,-89.5062,182.902,13,1,21.18,980.3,283.985,3,0.0267595,0,
1447430,0.914268,2.52174,0.497028,-10.5,124.67,5.53,-0.16408,-0.1666,0.00658,41.4877,-89.5062,182.902,13,1,21.18,980.3,283.985,3,0.0267595,0,
1447440,0.914268,2.52174,0.497028,-10.5,124.67,5.53,-0.16408,-0.1666,0.00658,41.4877,-89.5062,182.902,13,1,21.18,980.3,283.985,3,0.0267595,0,
1447450,0.019764,2.35997,-0.155184,11.97,145.95,8.4,-0.15834,-0.16464,-0.00686,41.4877,-89.5062,182.902,13,1,21.17,979.3,292.763,3,0.0139775,0,
1447460,0.019764,2.35997,-0.155184,11.97,145.95,8.4,-0.15834,-0.16464,-0.00686,41.4877,-89.5062,182.902,13,1,21.17,979.3,292.763,3,0.0139775,0,
1447470,0.019764,2.35997,-0.155184,11.97,145.95,8.4,-0.15834,-0.16464,-0.00686,41.4877,-89.5062,182.902,13,1,21.17,979.3,292.763,3,0.0139775,0,
1447480,0.297192,2.77062,-0.011712,17.5,175.56,4.13,-0.14854,-0.16604,-0.01834,41.4877,-89.5062,182.902,13,1,21.15,976.81,314.662,3,0.0245894,0,
1447490,0.297192,2.77062,-0.011712,17.5,175.56,4.13,-0.14854,-0.16604,-0.01834,41.4877,-89.5062,182.902,13,1,21.15,976.81,314.662,3,0.0245894,0,
1447500,0.297192,2.77062,-0.011712,17.5,175.56,4.13,-0.14854,-0.16604,-0.01834,41.4877,-89.5062,182.902,13,1,21.15,976.81,314.662,3,0.0245894,0,
1447510,0.297192,2.77062,-0.011712,17.5,175.56,4.13,-0.14854,-0.16604,-0.01834,41.4877,-89.5062,182.902,13,1,21.15,976.81,314.662,3,0.0245894,0,
1447520,-0.182268,2.06278,0.756156,21.98,146.02,6.58,-0.14882,-0.16842,-0.03276,41.4877,-89.5062,182.902,13,1,21.17,975.82,323.414,3,0.0184723,0,
1447530,-0.182268,2.06278,0.756156,21.98,146.02,6.58,-0.14882,-0.16842,-0.03276,41.4877,-89.5062,182.902,13,1,21.17,975.82,323.414,3,0.0184723,0,
1447540,-0.041724,2.36582,0.092232,21.63,151.27,6.86,-0.13888,-0.16604,-0.03878,41.4877,-89.5062,182.902,13,1,21.18,974.51,334.992,3,0.0184723,0,
1447550,-0.041724,2.36582,0.092232,21.63,151.27,6.86,-0.13888,-0.16604,-0.03878,41.4877,-89.5062,182.902,13,1,21.18,974.51,334.992,3,0.0235193,0,
1447560,-0.041724,2.36582,0.092232,21.63,151.27,6.86,-0.13888,-0.16604,-0.03878,41.4877,-89.5062,182.902,13,1,21.18,974.51,334.992,3,0.0235193,0,
1447570,0.736392,2.43244,-0.632448,-10.64,141.05,7.28,-0.12992,-0.16366,-0.04774,41.4877,-89.5062,182.902,13,1,21.17,973.45,344.351,3,0.0227074,0,
1447580,0.736392,2.43244,-0.632448,-10.64,141.05,7.28,-0.12992,-0.16366,-0.04774,41.4877,-89.5062,182.902,13,1,21.17,973.45,344.351,3,0.0227074,0,
1447590,0.736392,2.43244,-0.632448,-10.64,141.05,7.28,-0.12992,-0.16366,-0.04774,41.4877,-89.5062,182.902,13,1,21.17,973.45,344.351,3,0.0227074,0,
1447600,0.381372,1.95078,-0.791292,-19.11,167.86,6.65,-0.12572,-0.16492,-0.05628,41.4877,-89.5062,182.879,13,1,21.18,972.24,355.072,3,0.0199827,0,
1447610,0.381372,1.95078,-0.791292,-19.11,167.86,6.65,-0.12572,-0.16492,-0.05628,41.4877,-89.5062,182.879,13,1,21.18,972.24,355.072,3,0.0199827,0,
1447620,0.180072,2.28896,-0.204228,4.76,168.7,4.69,-0.11102,-0.16072,-0.0637,41.4877,-89.5062,182.879,13,1,21.18,971.11,365.085,3,0.028525,0,
1447630,0.180072,2.28896,-0.204228,4.76,168.7,4.69,-0.11102,-0.16072,-0.0637,41.4877,-89.5062,182.879,13,1,21.18,971.11,365.085,3,0.028525,0,
1447640,0.180072,2.28896,-0.204228,4.76,168.7,4.69,-0.11102,-0.16072,-0.0637,41.4877,-89.5062,182.879,13,1,21.18,971.11,365.085,3,0.028525,0,
1447650,0.136884,2.4134,-0.676368,-6.79,162.61,2.31,-0.10332,-0.16576,-0.07224,41.4877,-89.5062,182.879,13,1,21.2,969.76,377.089,3,0.0254219,0,
1447660,0.136884,2.4134,-0.676368,-6.79,162.61,2.31,-0.10332,-0.16576,-0.07224,41.4877,-89.5062,182.879,13,1,21.2,969.76,377.089,3,0.0254219,0,
1447670,0.136884,2.4134,-0.676368,-6.79,162.61,2.31,-0.10332,-0.16576,-0.07224,41.4877,-89.5062,182.879,13,1,21.2,969.76,377.089,3,0.0254219,0,
1447680,0.644892,2.25822,-0.039528,-1.96,162.47,1.12,-0.08722,-0.16926,-0.07364,41.4877,-89.5062,182.879,13,1,21.15,967.97,392.931,3,0.0237006,0,
1447690,0.644892,2.25822,-0.039528,-1.96,162.47,1.12,-0.08722,-0.16926,-0.07364,41.4877,-89.5062,182.879,13,1,21.15,967.97,392.931,3,0.0237006,0,
1447700,0.644892,2.25822,-0.039528,-1.96,162.47,1.12,-0.08722,-0.16926,-0.07364,41.4877,-89.5062,182.879,13,1,21.15,967.97,392.931,3,0.0237006,0,
1447710,0.644892,2.25822,-0.039528,-1.96,162.47,1.12,-0.08722,-0.16926,-0.07364,41.4877,-89.5062,182.879,13,1,21.15,967.97,392.931,3,0.0237006,0,
1447720,0.06588,2.53272,-0.319152,32.97,136.99,3.99,-0.07966,-0.16786,-0.0749,41.4877,-89.5062,182.879,13,1,21.16,967.09,400.776,3,0.0175967,0,
1447730,0.06588,2.53272,-0.319152,32.97,136.99,3.99,-0.07966,-0.16786,-0.0749,41.4877,-89.5062,182.879,13,1,21.16,967.09,400.776,3,0.0175967,0,
1447740,0.549732,2.09425,-0.349164,-15.96,156.87,4.62,-0.0693,-0.16982,-0.08092,41.4877,-89.5062,182.879,13,1,21.18,966.33,407.572,3,0.0260713,0,
1447750,0.549732,2.09425,-0.349164,-15.96,156.87,4.62,-0.0693,-0.16982,-0.08092,41.4877,-89.5062,182.879,13,1,21.18,966.33,407.572,3,0.0260713,0,
1447760,0.549732,2.09425,-0.349164,-15.96,156.87,4.62,-0.0693,-0.16982,-0.08092,41.4877,-89.5062,182.879,13,1,21.18,966.33,407.572,3,0.0260713,0,
1447770,0.379176,2.1799,0.732,-11.48,156.03,6.37,-0.0567,-0.16632,-0.08666,41.4877,-89.5062,182.879,13,1,21.18,965.09,418.628,3,0.0233287,0,
1447780,0.379176,2.1799,0.732,-11.48,156.03,6.37,-0.0567,-0.16632,-0.08666,41.4877,-89.5062,182.879,13,1,21.18,965.09,418.628,3,0.0233287,0,
1447790,0.379176,2.1799,0.732,-11.48,156.03,6.37,-0.0567,-0.16632,-0.08666,41.4877,-89.5062,182.879,13,1,21.18,965.09,418.628,3,0.0233287,0,
1447800,0.806664,2.2714,-0.427488,16.66,144.69,8.19,-0.04928,-0.1666,-0.08652,41.4877,-89.5062,182.853,10,1,21.18,963.7,431.038,3,0.0236273,0,
1447810,0.806664,2.2714,-0.427488,16.66,144.69,8.19,-0.04928,-0.1666,-0.08652,41.4877,-89.5062,182.853,10,1,21.18,963.7,431.038,3,0.0236273,0,
1447820,0.28182,2.22601,-0.302316,21.56,153.58,8.47,-0.03626,-0.16926,-0.09506,41.4877,-89.5062,182.853,10,1,21.18,962.7,439.977,3,0.0204039,0,
1447830,0.28182,2.22601,-0.302316,21.56,153.58,8.47,-0.03626,-0.16926,-0.09506,41.4877,-89.5062,182.853,10,1,21.18,962.7,439.977,3,0.0204039,0,
1447840,0.28182,2.22601,-0.302316,21.56,153.58,8.47,-0.03626,-0.16926,-0.09506,41.4877,-89.5062,182.853,10,1,21.18,962.7,439.977,3,0.0204039,0,
1447850,-0.00732,2.17697,-0.463356,0.07,167.51,5.53,-0.02534,-0.16982,-0.08652,41.4877,-89.5062,182.853,10,1,21.18,961.68,449.105,3,0.0242982,0,
1447860,-0.00732,2.17697,-0.463356,0.07,167.51,5.53,-0.02534,-0.16982,-0.08652,41.4877,-89.5062,182.853,10,1,21.18,961.68,449.105,3,0.0242982,0,
1447870,-0.08418,0.972828,0.111996,-14.07,161.35,7.07,-0.01232,-0.17122,-0.09786,41.4877,-89.5062,182.853,10,1,21.16,959.87,465.294,3,0.0269764,0,
1447880,-0.08418,0.972828,0.111996,-14.07,161.35,7.07,-0.01232,-0.17122,-0.09786,41.4877,-89.5062,182.853,10,1,21.16,959.87,465.294,3,0.0269764,0,
1447890,-0.08418,0.972828,0.111996,-14.07,161.35,7.07,-0.01232,-0.17122,-0.09786,41.4877,-89.5062,182.853,10,1,21.16,959.87,465.294,3,0.0269764,0,
1447900,-0.08418,0.972828,0.111996,-14.07,161.35,7.07,-0.01232,-0.17122,-0.09786,41.4877,-89.5062,182.853,10,1,21.16,959.87,465.294,3,0.0269764,0,
1447910,-0.08418,0.972828,0.111996,-14.07,161.35,7.07,-0.01232,-0.17122,-0.09786,41.4877,-89.5062,182.853,10,1,21.16,959.87,465.294,3,0.0269764,0,
1447920,-0.120048,2.44781,1.93541,10.92,150.99,8.33,0.00826,-0.1743,-0.09674,41.4877,-89.5062,182.853,10,1,21.16,958.65,476.245,3,0.0214659,0,
1447930,-0.120048,2.44781,1.93541,10.92,150.99,8.33,0.00826,-0.1743,-0.09674,41.4877,-89.5062,182.853,10,1,21.16,958.65,476.245,3,0.0214659,0,
1447940,0.458232,2.42219,-0.54534,13.37,147.21,4.62,0.01092,-0.17332,-0.10234,41.4877,-89.5062,182.853,10,1,21.16,957.78,484.061,3,0.0218672,0,
1447950,0.458232,2.42219,-0.54534,13.37,147.21,4.62,0.01092,-0.17332,-0.10234,41.4877,-89.5062,182.853,10,1,21.16,957.78,484.061,3,0.0218672,0,
1447960,0.458232,2.42219,-0.54534,13.37,147.21,4.62,0.01092,-0.17332,-0.10234,41.4877,-89.5062,182.853,10,1,21.16,957.78,484.061,3,0.0218672,0,
1447970,-0.004392,2.03423,0.00366,-7.7,138.53,3.08,0.02002,-0.1722,-0.09226,41.4877,-89.5062,182.853,10,1,21.18,957.07,490.479,3,0.0197941,0,
1447980,-0.004392,2.03423,0.00366,-7.7,138.53,3.08,0.02002,-0.1722,-0.09226,41.4877,-89.5062,182.853,10,1,21.18,957.07,490.479,3,0.0197941,0,
1447990,0.349896,2.28457,0.3477,2.52,150.36,1.82,0.02716,-0.17248,-0.09464,41.4877,-89.5062,182.853,10,1,21.18,955.71,502.723,3,0.0210074,0,
1448000,0.349896,2.28457,0.3477,2.52,150.36,1.82,0.02716,-0.17248,-0.09464,41.4877,-89.5062,182.822,12,1,21.18,955.71,502.723,3,0.0210074,0,
1448010,0.349896,2.28457,0.3477,2.52,150.36,1.82,0.02716,-0.17248,-0.09464,41.4877,-89.5062,182.822,12,1,21.18,955.71,502.723,3,0.0210074,0,
1448020,0.304512,1.79852,-0.17202,18.13,141.19,2.52,0.03752,-0.17248,-0.08862,41.4877,-89.5062,182.822,12,1,21.18,954.49,513.722,3,0.0241627,0,
1448030,0.304512,1.79852,-0.17202,18.13,141.19,2.52,0.03752,-0.17248,-0.08862,41.4877,-89.5062,182.822,12,1,21.18,954.49,513.722,3,0.0241627,0,
1448040,0.304512,1.79852,-0.17202,18.13,141.19,2.52,0.03752,-0.17248,-0.08862,41.4877,-89.5062,182.822,12,1,21.18,954.49,513.722,3,0.0241627,0,
1448050,0.217404,1.83805,0.633912,29.96,135.87,2.52,0.04816,-0.17472,-0.09254,41.4877,-89.5062,182.822,12,1,21.18,953.37,523.831,3,0.0201378,0,
1448060,0.217404,1.83805,0.633912,29.96,135.87,2.52,0.04816,-0.17472,-0.09254,41.4877,-89.5062,182.822,12,1,21.18,953.37,523.831,3,0.0201378,0,
1448070,0.226188,1.93248,-0.05856,-3.01,127.96,1.82,0.06076,-0.17276,-0.07532,41.4877,-89.5062,182.822,12,1,21.16,952.06,535.634,3,0.0197895,0,
1448080,0.226188,1.93248,-0.05856,-3.01,127.96,1.82,0.06076,-0.17276,-0.07532,41.4877,-89.5062,182.822,12,1,21.16,952.06,535.634,3,0.0197895,0,
1448090,0.226188,1.93248,-0.05856,-3.01,127.96,1.82,0.06076,-0.17276,-0.07532,41.4877,-89.5062,182.822,12,1,21.16,952.06,535.634,3,0.0197895,0,
1448100,0.226188,1.93248,-0.05856,-3.01,127.96,1.82,0.06076,-0.17276,-0.07532,41.4877,-89.5062,182.822,12,1,21.16,952.06,535.634,3,0.0197895,0,
1448110,0.226188,1.93248,-0.05856,-3.01,127.96,1.82,0.06076,-0.17276,-0.07532,41.4877,-89.5062,182.822,12,1,21.16,952.06,535.634,3,0.0197895,0,
1448120,0.412848,2.29994,-0.06954,-1.33,156.17,3.15,0.06874,-0.17206,-0.07616,41.4877,-89.5062,182.822,12,1,21.15,951.07,544.573,3,0.0269475,0,
1448130,0.412848,2.29994,-0.06954,-1.33,156.17,3.15,0.06874,-0.17206,-0.07616,41.4877,-89.5062,182.822,12,1,21.15,951.07,544.573,3,0.0269475,0,
1448140,0.50874,1.98518,0.166896,8.12,134.12,5.81,0.08106,-0.1687,-0.06258,41.4877,-89.5062,182.822,12,1,21.16,949.79,556.187,3,0.0175769,0,
1448150,0.50874,1.98518,0.166896,8.12,134.12,5.81,0.08106,-0.1687,-0.06258,41.4877,-89.5062,182.822,12,1,21.16,949.79,556.187,3,0.0175769,0,
1448160,0.50874,1.98518,0.166896,8.12,134.12,5.81,0.08106,-0.1687,-0.06258,41.4877,-89.5062,182.822,12,1,21.16,949.79,556.187,3,0.0175769,0,
1448170,0.507276,1.79779,0.067344,21.84,152.88,7.56,0.0847,-0.17332,-0.04998,41.4877,-89.5062,182.822,12,1,21.16,948.95,563.805,3,0.0253527,0,
1448180,0.507276,1.79779,0.067344,21.84,152.88,7.56,0.0847,-0.17332,-0.04998,41.4877,-89.5062,182.822,12,1,21.16,948.95,563.805,3,0.0253527,0,
1448190,0.40626,1.90247,0.050508,11.48,147.7,5.88,0.08932,-0.17192,-0.04256,41.4877,-89.5062,182.778,12,1,21.16,947.85,573.791,3,0.0229647,0,
1448200,0.40626,1.90247,0.050508,11.48,147.7,5.88,0.08932,-0.17192,-0.04256,41.4877,-89.5062,182.778,12,1,21.16,947.85,573.791,3,0.0229647,0,
1448210,0.40626,1.90247,0.050508,11.48,147.7,5.88,0.08932,-0.17192,-0.04256,41.4877,-89.5062,182.778,12,1,21.16,947.85,573.791,3,0.0229647,0,
1448220,0.32574,1.79706,-0.023424,1.47,131.6,7.28,0.09758,-0.17024,-0.03766,41.4877,-89.5062,182.778,12,1,21.17,946.81,583.262,3,0.021584,0,
1448230,0.32574,1.79706,-0.023424,1.47,131.6,7.28,0.09758,-0.17024,-0.03766,41.4877,-89.5062,182.778,12,1,21.17,946.81,583.262,3,0.021584,0,
1448240,0.32574,1.79706,-0.023424,1.47,131.6,7.28,0.09758,-0.17024,-0.03766,41.4877,-89.5062,182.778,12,1,21.17,946.81,583.262,3,0.021584,0,
1448250,0.177876,1.6836,-0.127368,9.73,156.45,6.02,0.10066,-0.17024,-0.02898,41.4877,-89.5062,182.778,12,1,21.17,945.62,594.091,3,0.0178955,0,
1448260,0.177876,1.6836,-0.127368,9.73,156.45,6.02,0.10066,-0.17024,-0.02898,41.4877,-89.5062,182.778,12,1,21.17,945.62,594.091,3,0.0178955,0,
1448270,0.0549,2.0152,0.2196,2.59,141.96,5.67,0.1106,-0.17556,-0.0091,41.4877,-89.5062,182.778,12,1,21.15,944.21,606.898,3,0.0266012,0,
1448280,0.0549,2.0152,0.2196,2.59,141.96,5.67,0.1106,-0.17556,-0.0091,41.4877,-89.5062,182.778,12,1,21.15,944.21,606.898,3,0.0266012,0,
1448290,0.0549,2.0152,0.2196,2.59,141.96,5.67,0.1106,-0.17556,-0.0091,41.4877,-89.5062,182.778,12,1,21.15,944.21,606.898,3,0.0266012,0,
1448300,0.0549,2.0152,0.2196,2.59,141.96,5.67,0.1106,-0.17556,-0.0091,41.4877,-89.5062,182.778,12,1,21.15,944.21,606.898,3,0.0266012,0,
1448310,0.5124,2.00056,0.445056,33.88,132.37,5.53,0.1162,-0.17612,-0.00658,41.4877,-89.5062,182.778,12,1,21.16,943.18,616.315,3,0.0196386,0,
1448320,0.5124,2.00056,0.445056,33.88,132.37,5.53,0.1162,-0.17612,-0.00658,41.4877,-89.5062,182.778,12,1,21.16,943.18,616.315,3,0.0187723,0,
1448330,0.5124,2.00056,0.445056,33.88,132.37,5.53,0.1162,-0.17612,-0.00658,41.4877,-89.5062,182.778,12,1,21.16,943.18,616.315,3,0.0187723,0,
1448340,0.141276,1.58551,0.078324,2.94,139.79,4.97,0.1197,-0.17332,-0.00322,41.4877,-89.5062,182.778,12,1,21.16,941.98,627.276,3,0.0220704,0,
1448350,0.141276,1.58551,0.078324,2.94,139.79,4.97,0.1197,-0.17332,-0.00322,41.4877,-89.5062,182.778,12,1,21.16,941.98,627.276,3,0.0220704,0,
1448360,0.141276,1.58551,0.078324,2.94,139.79,4.97,0.1197,-0.17332,-0.00322,41.4877,-89.5062,182.778,12,1,21.16,941.98,627.276,3,0.0220704,0,
1448370,0.294996,1.54306,-0.324276,13.79,139.02,4.2,0.12222,-0.17374,0.00742,41.4877,-89.5062,182.778,12,1,21.17,941.23,634.156,3,0.0208,0,
1448380,0.294996,1.54306,-0.324276,13.79,139.02,4.2,0.12222,-0.17374,0.00742,41.4877,-89.5062,182.778,12,1,21.17,941.23,634.156,3,0.0208,0,
1448390,0.471408,1.71434,-0.88938,20.58,130.34,4.2,0.12572,-0.17458,0.0231,41.4877,-89.5062,182.736,11,1,21.17,939.97,645.69,3,0.0185757,0,
1448400,0.471408,1.71434,-0.88938,20.58,130.34,4.2,0.12572,-0.17458,0.0231,41.4877,-89.5062,182.736,11,1,21.17,939.97,645.69,3,0.0185757,0,
1448410,0.471408,1.71434,-0.88938,20.58,130.34,4.2,0.12572,-0.17458,0.0231,41.4877,-89.5062,182.736,11,1,21.17,939.97,645.69,3,0.0185757,0,
1448420,0.298656,1.64261,-0.28914,13.37,136.36,5.11,0.1281,-0.17542,0.02576,41.4877,-89.5062,182.736,11,1,21.18,939.28,652.034,3,0.0213943,0,
1448430,0.298656,1.64261,-0.28914,13.37,136.36,5.11,0.1281,-0.17542,0.02576,41.4877,-89.5062,182.736,11,1,21.18,939.28,652.034,3,0.0213943,0,
1448440,0.238632,1.78242,-0.484584,7.56,133.91,3.64,0.13342,-0.17136,0.04032,41.4877,-89.5062,182.736,11,1,21.17,938.46,659.532,3,0.0204925,0,
1448450,0.238632,1.78242,-0.484584,7.56,133.91,3.64,0.13342,-0.17136,0.04032,41.4877,-89.5062,182.736,11,1,21.17,938.46,659.532,3,0.0204925,0,
1448460,0.238632,1.78242,-0.484584,7.56,133.91,3.64,0.13342,-0.17136,0.04032,41.4877,-89.5062,182.736,11,1,21.17,938.46,659.532,3,0.0204925,0,
1448470,0.1098,1.8322,0.429684,11.34,120.75,6.23,0.13524,-0.17654,0.05348,41.4877,-89.5062,182.736,11,1,21.15,936.64,676.2,3,0.0198398,0,
1448480,0.1098,1.8322,0.429684,11.34,120.75,6.23,0.13524,-0.17654,0.05348,41.4877,-89.5062,182.736,11,1,21.15,936.64,676.2,3,0.0198398,0,
1448490,0.1098,1.8322,0.429684,11.34,120.75,6.23,0.13524,-0.17654,0.05348,41.4877,-89.5062,182.736,11,1,21.15,936.64,676.2,3,0.0198398,0,
1448500,0.1098,1.8322,0.429684,11.34,120.75,6.23,0.13524,-0.17654,0.05348,41.4877,-89.5062,182.736,11,1,21.15,936.64,676.2,3,0.0198398,0,
1448510,0.414312,2.27798,0.251808,3.92,155.26,5.67,0.13118,-0.17878,0.0707,41.4877,-89.5062,182.736,11,1,21.16,935.67,685.144,3,0.0166168,0,
1448520,0.414312,2.27798,0.251808,3.92,155.26,5.67,0.13118,-0.17878,0.0707,41.4877,-89.5062,182.736,11,1,21.16,935.67,685.144,3,0.0275554,0,
1448530,0.414312,2.27798,0.251808,3.92,155.26,5.67,0.13118,-0.17878,0.0707,41.4877,-89.5062,182.736,11,1,21.16,935.67,685.144,3,0.0275554,0,
1448540,0.40992,1.70263,-0.22326,6.93,135.45,5.25,0.12768,-0.17696,0.07728,41.4877,-89.5062,182.736,11,1,21.17,934.9,692.256,3,0.0180472,0,
1448550,0.40992,1.70263,-0.22326,6.93,135.45,5.25,0.12768,-0.17696,0.07728,41.4877,-89.5062,182.736,11,1,21.17,934.9,692.256,3,0.0180472,0,
1448560,0.40992,1.70263,-0.22326,6.93,135.45,5.25,0.12768,-0.17696,0.07728,41.4877,-89.5062,182.736,11,1,21.17,934.9,692.256,3,0.0180472,0,
1448570,0.255468,1.6126,0.224724,-2.1,127.12,4.83,0.13244,-0.17332,0.08232,41.4877,-89.5062,182.736,11,1,21.17,933.84,702.024,3,0.0183375,0,
1448580,0.255468,1.6126,0.224724,-2.1,127.12,4.83,0.13244,-0.17332,0.08232,41.4877,-89.5062,182.736,11,1,21.17,933.84,702.024,3,0.0183375,0,
1448590,0.423096,1.6492,-0.55266,2.31,119.91,4.27,0.12922,-0.17584,0.0924,41.4877,-89.5062,182.714,10,1,21.16,932.85,711.132,3,0.0171872,0,
1448600,0.423096,1.6492,-0.55266,2.31,119.91,4.27,0.12922,-0.17584,0.0924,41.4877,-89.5062,182.714,10,1,21.16,932.85,711.132,3,0.0171872,0,
1448610,0.423096,1.6492,-0.55266,2.31,119.91,4.27,0.12922,-0.17584,0.0924,41.4877,-89.5062,182.714,10,1,21.16,932.85,711.132,3,0.0171872,0,
1448620,0.46848,1.69604,0.25254,0.84,146.23,4.27,0.13104,-0.17612,0.09996,41.4877,-89.5062,182.714,10,1,21.16,931.86,720.274,3,0.0252477,0,
1448630,0.46848,1.69604,0.25254,0.84,146.23,4.27,0.13104,-0.17612,0.09996,41.4877,-89.5062,182.714,10,1,21.16,931.86,720.274,3,0.0252477,0,
1448640,0.456036,1.92077,-0.34038,7.63,117.39,5.25,0.12376,-0.17892,0.1043,41.4877,-89.5062,182.714,10,1,21.17,931.18,726.584,3,0.0219776,0,
1448650,0.456036,1.92077,-0.34038,7.63,117.39,5.25,0.12376,-0.17892,0.1043,41.4877,-89.5062,182.714,10,1,21.17,931.18,726.584,3,0.0219776,0,
1448660,0.456036,1.92077,-0.34038,7.63,117.39,5.25,0.12376,-0.17892,0.1043,41.4877,-89.5062,182.714,10,1,21.17,931.18,726.584,3,0.0219776,0,
1448670,0.319884,1.57234,-0.401136,2.31,139.93,4.76,0.12712,-0.17668,0.12544,41.4877,-89.5063,182.705,11,1,21.16,930.21,735.533,3,0.0142874,0,
1448680,0.319884,1.57234,-0.401136,2.31,139.93,4.76,0.12712,-0.17668,0.12544,41.4877,-89.5063,182.705,11,1,21.16,930.21,735.533,3,0.0142874,0,
1448690,0.319884,1.57234,-0.401136,2.31,139.93,4.76,0.12712,-0.17668,0.12544,41.4877,-89.5063,182.705,11,1,21.16,930.21,735.533,3,0.0142874,0,
1448700,0.256932,1.85489,0.078324,-7.49,141.4,3.85,0.1176,-0.1764,0.1225,41.4877,-89.5063,182.705,11,1,21.19,929.12,745.703,3,0.0238634,0,
1448710,0.256932,1.85489,0.078324,-7.49,141.4,3.85,0.1176,-0.1764,0.1225,41.4877,-89.5063,182.705,11,1,21.19,929.12,745.703,3,0.0238634,0,
1448720,0.508008,1.50353,-0.50508,16.17,148.68,5.88,0.12068,-0.17374,0.13132,41.4877,-89.5063,182.705,11,1,21.18,928.27,753.558,3,0.0214263,0,
1448730,0.508008,1.50353,-0.50508,16.17,148.68,5.88,0.12068,-0.17374,0.13132,41.4877,-89.5063,182.705,11,1,21.18,928.27,753.558,3,0.0214263,0,
1448740,0.508008,1.50353,-0.50508,16.17,148.68,5.88,0.12068,-0.17374,0.13132,41.4877,-89.5063,182.705,11,1,21.18,928.27,753.558,3,0.0214263,0,
1448750,0.189588,1.78022,0.07686,-1.19,132.23,4.9,0.11634,-0.17402,0.13678,41.4877,-89.5063,182.69,12,1,21.19,927.38,761.843,3,0.0233967,0,
